datetime	block	trial	trial_type	setSize	RT	accuracy	timeout	clickedObject	Targ_X	Targ_Y	Click_X	Click_Y	target_start_color	target_end_color
2017-04-13 16:26:42.750000	1	1	noChange	8	1.2794413423	1	0	noChange	-191.443703514	114.687407028	949	214	white	white
2017-04-13 16:26:46.024000	1	2	noChange	8	0.916462863648	1	0	noChange	37.9311105419	-114.687407028	968	214	magenta	magenta
2017-04-13 16:26:49.483000	1	3	change	8	0.996594091307	0	0	noChange	114.687407028	-191.443703514	959	202	blue	red
2017-04-13 16:26:53.020000	1	4	noChange	8	1.12977390695	0	0	change	-114.687407028	-114.687407028	-973	118	blue	blue
2017-04-13 16:26:56.369000	1	5	noChange	8	0.948526275296	1	0	noChange	-37.9311105419	191.443703514	934	190	magenta	magenta
2017-04-13 16:26:59.845000	1	6	change	8	1.03295060652	0	0	noChange	37.9311105419	-191.443703514	932	180	red	magenta
2017-04-13 16:27:03.379000	1	7	noChange	8	1.13999655961	0	0	change	37.9311105419	191.443703514	-982	103	magenta	magenta
2017-04-13 16:27:06.673000	1	8	change	8	0.933271532129	0	0	noChange	191.443703514	114.687407028	941	184	white	yellow
2017-04-13 16:27:10.091000	1	9	noChange	8	1.02260068389	1	0	noChange	114.687407028	114.687407028	927	173	red	red
2017-04-13 16:27:13.503000	1	10	noChange	8	1.0315674693	1	0	noChange	-191.443703514	191.443703514	929	171	black	black
2017-04-13 16:27:17.222000	1	11	noChange	8	1.2962196302	0	0	change	-114.687407028	-191.443703514	-966	86	white	white
2017-04-13 16:27:20.350000	1	12	change	8	0.750077080443	0	0	noChange	-191.443703514	-37.9311105419	936	179	red	blue
2017-04-13 16:27:23.784000	1	13	noChange	8	1.05888412151	0	0	change	114.687407028	-191.443703514	-966	80	green	green
2017-04-13 16:27:27.263000	1	14	change	8	1.068701563	1	0	change	-37.9311105419	37.9311105419	-964	79	blue	black
2017-04-13 16:27:30.690000	1	15	change	8	0.997614303831	1	0	change	37.9311105419	-114.687407028	-954	75	white	blue
2017-04-13 16:27:34.017000	1	16	noChange	8	0.956168221345	1	0	noChange	-191.443703514	-191.443703514	923	167	red	red
2017-04-13 16:27:37.376000	1	17	change	8	0.963606535436	1	0	change	191.443703514	-114.687407028	-961	68	blue	magenta
2017-04-13 16:27:40.808000	1	18	change	8	1.04251761355	1	0	change	-191.443703514	37.9311105419	-954	65	blue	black
2017-04-13 16:27:44.473000	1	19	change	8	1.23620567977	1	0	change	191.443703514	37.9311105419	-960	68	white	red
2017-04-13 16:27:47.977000	1	20	change	8	1.12650594248	0	0	noChange	-191.443703514	-114.687407028	925	168	yellow	red
2017-04-13 16:27:51.406000	1	21	noChange	8	1.04362363067	1	0	noChange	37.9311105419	-191.443703514	927	170	white	white
2017-04-13 16:27:54.962000	1	22	change	8	1.16858509045	1	0	change	-114.687407028	-114.687407028	-970	69	blue	magenta
2017-04-13 16:27:58.673000	1	23	noChange	8	1.32140225235	0	0	change	-114.687407028	114.687407028	-952	63	green	green
2017-04-13 16:28:01.997000	1	24	change	8	0.965925722781	1	0	change	-37.9311105419	191.443703514	-961	72	yellow	magenta
2017-04-13 16:28:05.875000	1	25	noChange	8	1.48455291495	1	0	noChange	191.443703514	-37.9311105419	919	162	red	red
2017-04-13 16:28:09.654000	1	26	noChange	8	1.38468457779	0	0	change	-114.687407028	37.9311105419	-963	72	blue	blue
2017-04-13 16:28:13.278000	1	27	noChange	8	1.21174274879	1	0	noChange	-37.9311105419	37.9311105419	925	157	red	red
2017-04-13 16:28:16.854000	1	28	change	8	1.14606815841	1	0	change	-191.443703514	114.687407028	-957	58	red	blue
2017-04-13 16:28:20.292000	1	29	noChange	8	1.0692558032	1	0	noChange	37.9311105419	-37.9311105419	929	156	blue	blue
2017-04-13 16:28:23.869000	1	30	change	8	1.17157511371	1	0	change	191.443703514	-37.9311105419	-977	54	white	black
2017-04-13 16:28:27.886000	1	31	change	8	1.60513341383	1	0	change	-114.687407028	114.687407028	-965	49	green	white
2017-04-13 16:28:31.443000	1	32	noChange	8	1.16730417975	1	0	noChange	-191.443703514	-114.687407028	923	147	blue	blue
2017-04-13 16:28:35.456000	1	33	change	8	1.61395158075	1	0	change	-114.687407028	-37.9311105419	-971	45	white	red
2017-04-13 16:28:39.693000	1	34	noChange	8	1.87185555926	1	0	noChange	-191.443703514	37.9311105419	924	144	magenta	magenta
2017-04-13 16:28:43.047000	1	35	change	8	0.963275222959	1	0	change	37.9311105419	37.9311105419	-972	44	white	green
2017-04-13 16:28:46.686000	1	36	change	8	1.19838638096	1	0	change	114.687407028	114.687407028	-977	47	green	yellow
2017-04-13 16:28:50.296000	1	37	change	8	1.17553403096	1	0	change	191.443703514	191.443703514	-968	41	green	yellow
2017-04-13 16:28:54.346000	1	38	change	8	1.62905113666	0	0	noChange	37.9311105419	-37.9311105419	920	139	yellow	black
2017-04-13 16:28:57.922000	1	39	noChange	8	1.11636088345	1	0	noChange	191.443703514	-191.443703514	917	127	blue	blue
2017-04-13 16:29:01.675000	1	40	noChange	8	1.35501917876	1	0	noChange	-37.9311105419	114.687407028	916	129	green	green
2017-04-13 16:29:05.170000	1	41	noChange	8	1.08597209832	1	0	noChange	-37.9311105419	-37.9311105419	928	137	yellow	yellow
2017-04-13 16:29:08.690000	1	42	noChange	8	1.1397202606	1	0	noChange	-37.9311105419	-191.443703514	925	131	white	white
2017-04-13 16:29:12.537000	1	43	noChange	8	1.39334550472	1	0	noChange	114.687407028	-114.687407028	931	133	black	black
2017-04-13 16:29:15.968000	1	44	change	8	1.02785652322	1	0	change	37.9311105419	114.687407028	-979	45	magenta	red
2017-04-13 16:29:19.430000	1	45	change	8	1.03773020983	1	0	change	114.687407028	37.9311105419	-982	38	blue	magenta
2017-04-13 16:29:22.970000	1	46	change	8	1.07999287288	0	0	noChange	-191.443703514	-191.443703514	925	133	black	yellow
2017-04-13 16:29:26.346000	1	47	noChange	8	0.988833086252	1	0	noChange	-37.9311105419	-114.687407028	926	132	blue	blue
2017-04-13 16:29:29.851000	1	48	change	8	1.1104087542	1	0	change	114.687407028	-37.9311105419	-973	38	black	blue
2017-04-13 16:29:33.455000	1	49	noChange	8	1.17364797208	0	0	change	-114.687407028	191.443703514	-973	36	green	green
2017-04-13 16:29:37.428000	1	50	change	8	1.54567041921	1	0	change	-37.9311105419	-37.9311105419	-985	39	black	white
2017-04-13 16:29:40.998000	1	51	noChange	8	1.15755899476	1	0	noChange	114.687407028	191.443703514	918	128	white	white
2017-04-13 16:29:44.807000	1	52	noChange	8	1.36350110663	1	0	noChange	37.9311105419	37.9311105419	922	131	green	green
2017-04-13 16:29:48.309000	1	53	noChange	8	1.09926811555	1	0	noChange	-191.443703514	-37.9311105419	921	129	magenta	magenta
2017-04-13 16:29:51.881000	1	54	change	8	1.14971095347	1	0	change	114.687407028	191.443703514	-989	39	red	yellow
2017-04-13 16:29:55.803000	1	55	noChange	8	1.53832324685	0	0	change	114.687407028	37.9311105419	-975	33	yellow	yellow
2017-04-13 16:29:59.102000	1	56	noChange	8	0.885144186616	1	0	noChange	-114.687407028	-37.9311105419	919	130	magenta	magenta
2017-04-13 16:30:03.103000	1	57	noChange	8	1.59742988554	0	0	change	191.443703514	191.443703514	-977	34	green	green
2017-04-13 16:30:06.282000	1	58	change	8	0.767328319991	0	0	noChange	114.687407028	-114.687407028	918	133	white	blue
2017-04-13 16:30:09.890000	1	59	noChange	8	1.21649525591	1	0	noChange	37.9311105419	114.687407028	919	132	red	red
2017-04-13 16:30:13.367000	1	60	change	8	1.0745691193	0	0	noChange	-37.9311105419	-191.443703514	925	130	yellow	red
2017-04-13 16:30:17.379000	1	61	change	8	1.637154539	0	0	noChange	-114.687407028	-191.443703514	926	137	red	blue
2017-04-13 16:30:20.664000	1	62	change	8	0.926665399441	0	0	noChange	37.9311105419	191.443703514	928	139	magenta	red
2017-04-13 16:30:24.183000	1	63	change	8	1.09361445491	1	0	change	-37.9311105419	114.687407028	-992	35	black	white
2017-04-13 16:30:27.629000	1	64	noChange	8	1.01972027702	1	0	noChange	191.443703514	-114.687407028	926	131	magenta	magenta
2017-04-13 16:30:31.287000	1	65	change	8	1.22767079117	0	0	noChange	-37.9311105419	-114.687407028	923	130	green	white
2017-04-13 16:30:34.782000	1	66	change	8	1.07186032162	1	0	change	-114.687407028	37.9311105419	-979	35	red	black
2017-04-13 16:30:38.115000	1	67	noChange	8	0.92037867333	1	0	noChange	191.443703514	114.687407028	919	126	yellow	yellow
2017-04-13 16:30:41.489000	1	68	change	8	0.997412314068	0	0	noChange	191.443703514	-191.443703514	921	119	red	yellow
2017-04-13 16:30:45.258000	1	69	noChange	8	1.34534748192	0	0	change	191.443703514	37.9311105419	-980	23	red	red
2017-04-13 16:30:47.703000	1	70	change	8	0.0278002781054	0	0	noChange	-191.443703514	191.443703514	923	126	red	magenta
2017-04-13 16:30:51.273000	1	71	change	8	1.17030036124	0	0	noChange	-114.687407028	191.443703514	921	125	black	yellow
2017-04-13 16:30:54.790000	1	72	noChange	8	1.1490626977	1	0	noChange	114.687407028	-37.9311105419	920	124	magenta	magenta
