datetime	block	trial	trial_type	setSize	RT	accuracy	timeout	clickedObject	Targ_X	Targ_Y	Click_X	Click_Y	target_start_color	target_end_color
2017-04-19 13:22:32.058000	1	1	noChange	8	1.23687151343	0	0	change	-191.443703514	-114.687407028	-949	179	magenta	magenta
2017-04-19 13:22:35.288000	1	2	noChange	8	0.803353926394	1	0	noChange	-37.9311105419	-37.9311105419	970	139	black	black
2017-04-19 13:22:38.717000	1	3	noChange	8	1.01601217191	0	0	change	-114.687407028	-114.687407028	-978	176	yellow	yellow
2017-04-19 13:22:42.681000	1	4	change	8	1.57702075564	1	0	change	-191.443703514	-191.443703514	-961	173	blue	yellow
2017-04-19 13:22:46.533000	1	5	change	8	1.45023425838	1	0	change	-114.687407028	-114.687407028	-961	174	red	magenta
2017-04-19 13:22:50.033000	1	6	noChange	8	1.07550090895	1	0	noChange	191.443703514	-191.443703514	971	127	yellow	yellow
2017-04-19 13:22:53.563000	1	7	change	8	1.10748953515	0	0	noChange	-191.443703514	-37.9311105419	981	123	black	white
2017-04-19 13:22:57.239000	1	8	noChange	8	1.2778232117	0	0	change	37.9311105419	-191.443703514	-959	170	white	white
2017-04-19 13:23:00.750000	1	9	noChange	8	1.0898047929	1	0	noChange	114.687407028	-191.443703514	977	119	magenta	magenta
2017-04-19 13:23:04.164000	1	10	change	8	0.997093324006	1	0	change	-114.687407028	-37.9311105419	-947	171	yellow	magenta
2017-04-19 13:23:07.762000	1	11	change	8	1.22492129805	0	0	noChange	37.9311105419	-37.9311105419	970	113	blue	yellow
2017-04-19 13:23:11.036000	1	12	change	8	0.838087883431	1	0	change	114.687407028	191.443703514	-929	172	black	white
2017-04-19 13:23:14.440000	1	13	noChange	8	1.00038960954	1	0	noChange	37.9311105419	114.687407028	968	108	green	green
2017-04-19 13:23:17.707000	1	14	noChange	8	0.880215389618	1	0	noChange	191.443703514	191.443703514	969	108	yellow	yellow
2017-04-19 13:23:21.004000	1	15	noChange	8	0.893375898894	1	0	noChange	-114.687407028	-191.443703514	974	109	yellow	yellow
2017-04-19 13:23:24.223000	1	16	change	8	0.822704670224	1	0	change	191.443703514	114.687407028	-951	172	blue	red
2017-04-19 13:23:27.636000	1	17	noChange	8	0.969743884075	1	0	noChange	114.687407028	-114.687407028	966	100	magenta	magenta
2017-04-19 13:23:30.913000	1	18	change	8	0.866178772069	1	0	change	37.9311105419	114.687407028	-964	174	green	blue
2017-04-19 13:23:34.175000	1	19	noChange	8	0.846686799914	1	0	noChange	37.9311105419	-37.9311105419	980	100	black	black
2017-04-19 13:23:37.610000	1	20	change	8	1.0476374636	0	0	noChange	114.687407028	-191.443703514	972	99	magenta	yellow
2017-04-19 13:23:40.785000	1	21	noChange	8	0.754893315138	1	0	noChange	37.9311105419	191.443703514	972	97	red	red
2017-04-19 13:23:43.960000	1	22	change	8	0.780343151986	0	0	noChange	37.9311105419	-191.443703514	968	97	white	red
2017-04-19 13:23:47.310000	1	23	change	8	0.951049605628	0	0	noChange	-191.443703514	-114.687407028	983	98	white	black
2017-04-19 13:23:50.540000	1	24	noChange	8	0.815237222532	1	0	noChange	-191.443703514	-37.9311105419	959	94	red	red
2017-04-19 13:23:53.679000	1	25	change	8	0.71771865347	0	0	noChange	-37.9311105419	37.9311105419	976	97	magenta	green
2017-04-19 13:23:56.918000	1	26	change	8	0.852712404938	0	0	noChange	-114.687407028	114.687407028	959	93	magenta	black
2017-04-19 13:24:00.281000	1	27	change	8	0.952828918306	1	0	change	191.443703514	37.9311105419	-968	177	magenta	white
2017-04-19 13:24:03.487000	1	28	noChange	8	0.827219460606	1	0	noChange	37.9311105419	37.9311105419	977	93	yellow	yellow
2017-04-19 13:24:06.788000	1	29	change	8	0.871974059969	1	0	change	-37.9311105419	114.687407028	-941	164	white	green
2017-04-19 13:24:09.933000	1	30	noChange	8	0.704735500695	1	0	noChange	-37.9311105419	-114.687407028	973	94	black	black
2017-04-19 13:24:13.059000	1	31	noChange	8	0.750366618879	1	0	noChange	114.687407028	191.443703514	979	92	red	red
2017-04-19 13:24:16.634000	1	32	change	8	1.14971557272	1	0	change	-37.9311105419	-37.9311105419	-955	176	blue	black
2017-04-19 13:24:20.198000	1	33	change	8	1.17139001516	0	0	noChange	37.9311105419	37.9311105419	916	73	black	green
2017-04-19 13:24:23.386000	1	34	change	8	0.765244037619	1	0	change	114.687407028	114.687407028	-959	163	black	magenta
2017-04-19 13:24:26.704000	1	35	noChange	8	0.945652138213	1	0	noChange	191.443703514	37.9311105419	1002	51	green	green
2017-04-19 13:24:30.004000	1	36	noChange	8	0.89410297844	1	0	noChange	-37.9311105419	114.687407028	1024	54	white	white
2017-04-19 13:24:33.353000	1	37	change	8	0.977293030711	1	0	change	191.443703514	-114.687407028	-993	170	red	magenta
2017-04-19 13:24:36.551000	1	38	change	8	0.804420528687	1	0	change	-114.687407028	37.9311105419	-989	171	white	blue
2017-04-19 13:24:40.253000	1	39	noChange	8	1.32943846961	1	0	noChange	-191.443703514	114.687407028	1015	44	magenta	magenta
2017-04-19 13:24:43.632000	1	40	change	8	1.01491477856	1	0	change	114.687407028	-114.687407028	-961	279	yellow	white
2017-04-19 13:24:47.173000	1	41	change	8	1.11098698893	0	0	noChange	191.443703514	191.443703514	981	204	black	white
2017-04-19 13:24:50.454000	1	42	change	8	0.867191592645	1	0	change	37.9311105419	191.443703514	-960	280	green	blue
2017-04-19 13:24:53.795000	1	43	change	8	0.954213694878	0	0	noChange	-37.9311105419	-114.687407028	1006	203	white	yellow
2017-04-19 13:24:57.044000	1	44	change	8	0.847062450837	0	0	noChange	-37.9311105419	191.443703514	978	197	red	white
2017-04-19 13:25:00.281000	1	45	noChange	8	0.821899176113	1	0	noChange	191.443703514	-37.9311105419	967	192	magenta	magenta
2017-04-19 13:25:03.505000	1	46	noChange	8	0.801025711766	1	0	noChange	-37.9311105419	-191.443703514	981	197	white	white
2017-04-19 13:25:06.613000	1	47	noChange	8	0.699792919863	1	0	noChange	-114.687407028	-37.9311105419	965	194	green	green
2017-04-19 13:25:09.933000	1	48	change	8	0.892095401376	1	0	change	-191.443703514	114.687407028	-965	273	white	magenta
2017-04-19 13:25:13.113000	1	49	noChange	8	0.778994093043	1	0	noChange	114.687407028	37.9311105419	985	196	yellow	yellow
2017-04-19 13:25:16.834000	1	50	change	8	1.32031323129	1	0	change	191.443703514	-191.443703514	-966	281	white	blue
2017-04-19 13:25:20.647000	1	51	change	8	1.41499779125	0	0	noChange	191.443703514	-37.9311105419	983	196	magenta	white
2017-04-19 13:25:23.807000	1	52	change	8	0.759258255699	0	0	noChange	-191.443703514	37.9311105419	983	194	blue	red
2017-04-19 13:25:27.627000	1	53	change	8	1.43715011093	0	0	noChange	114.687407028	37.9311105419	933	179	red	yellow
2017-04-19 13:25:30.873000	1	54	noChange	8	0.836207165531	1	0	noChange	114.687407028	114.687407028	972	190	magenta	magenta
2017-04-19 13:25:34.724000	1	55	noChange	8	1.40724706582	0	0	change	114.687407028	-37.9311105419	-988	291	blue	blue
2017-04-19 13:25:37.969000	1	56	noChange	8	0.819356655713	1	0	noChange	-191.443703514	37.9311105419	962	187	black	black
2017-04-19 13:25:41.437000	1	57	change	8	1.02154306725	1	0	change	37.9311105419	-114.687407028	-968	281	black	red
2017-04-19 13:25:44.765000	1	58	noChange	8	0.910650504234	1	0	noChange	-114.687407028	114.687407028	989	195	blue	blue
2017-04-19 13:25:48.252000	1	59	noChange	8	1.10260976807	1	0	noChange	-191.443703514	191.443703514	985	192	red	red
2017-04-19 13:25:51.645000	1	60	noChange	8	1.00449097863	1	0	noChange	37.9311105419	-114.687407028	975	191	white	white
2017-04-19 13:25:54.808000	1	61	noChange	8	0.764140896603	1	0	noChange	-37.9311105419	37.9311105419	967	184	black	black
2017-04-19 13:25:58.536000	1	62	change	8	1.35509932785	1	0	change	-37.9311105419	-191.443703514	-957	283	magenta	yellow
2017-04-19 13:26:01.877000	1	63	change	8	0.95120109764	0	0	noChange	-114.687407028	-191.443703514	952	174	magenta	black
2017-04-19 13:26:05.036000	1	64	noChange	8	0.758354230199	1	0	noChange	191.443703514	114.687407028	989	180	green	green
2017-04-19 13:26:09.112000	1	65	noChange	8	1.66180619533	1	0	noChange	191.443703514	-114.687407028	975	175	yellow	yellow
2017-04-19 13:26:12.410000	1	66	noChange	8	0.903377245489	1	0	noChange	-114.687407028	37.9311105419	982	176	green	green
2017-04-19 13:26:15.410000	1	67	noChange	8	0.566271802123	1	0	noChange	-114.687407028	191.443703514	979	172	blue	blue
2017-04-19 13:26:18.446000	1	68	change	8	0.631451958558	0	0	noChange	-191.443703514	191.443703514	988	175	yellow	white
2017-04-19 13:26:21.675000	1	69	noChange	8	0.802860037803	1	0	noChange	-191.443703514	-191.443703514	982	167	yellow	yellow
2017-04-19 13:26:24.934000	1	70	change	8	0.87260999798	1	0	change	114.687407028	-37.9311105419	-939	260	blue	white
2017-04-19 13:26:28.203000	1	71	change	8	0.859527492721	0	0	noChange	-114.687407028	191.443703514	980	167	red	magenta
2017-04-19 13:26:31.362000	1	72	noChange	8	0.741619084216	1	0	noChange	-37.9311105419	191.443703514	1003	173	white	white
