datetime	block	trial	trial_type	setSize	RT	accuracy	timeout	clickedObject	Targ_X	Targ_Y	Click_X	Click_Y	target_start_color	target_end_color
2017-04-17 15:15:52.356000	1	1	noChange	8	0.665572830943	1	0	noChange	191.443703514	191.443703514	954	497	black	black
2017-04-17 15:15:55.748000	1	2	noChange	8	0.950383677283	1	0	noChange	114.687407028	114.687407028	950	478	black	black
2017-04-17 15:15:59.161000	1	3	noChange	8	0.988156522103	1	0	noChange	191.443703514	-191.443703514	945	452	black	black
2017-04-17 15:16:02.684000	1	4	change	8	1.08526129919	0	0	noChange	-37.9311105419	114.687407028	958	450	blue	magenta
2017-04-17 15:16:06.136000	1	5	noChange	8	1.05923052701	1	0	noChange	114.687407028	-191.443703514	950	443	white	white
2017-04-17 15:16:09.719000	1	6	noChange	8	1.13430244469	1	0	noChange	114.687407028	-114.687407028	940	438	magenta	magenta
2017-04-17 15:16:13.216000	1	7	noChange	8	1.07118608441	1	0	noChange	37.9311105419	191.443703514	934	434	red	red
2017-04-17 15:16:16.638000	1	8	noChange	8	0.991583363132	1	0	noChange	-37.9311105419	191.443703514	940	432	green	green
2017-04-17 15:16:20.036000	1	9	noChange	8	0.964136201638	1	0	noChange	37.9311105419	37.9311105419	944	434	yellow	yellow
2017-04-17 15:16:23.358000	1	10	noChange	8	0.879803150625	1	0	noChange	-37.9311105419	-37.9311105419	951	437	black	black
2017-04-17 15:16:27.085000	1	11	change	8	1.30476592422	0	0	noChange	-37.9311105419	191.443703514	958	437	blue	white
2017-04-17 15:16:30.402000	1	12	change	8	0.905333054708	0	0	noChange	-114.687407028	-191.443703514	955	432	blue	red
2017-04-17 15:16:33.831000	1	13	noChange	8	0.974439304844	1	0	noChange	191.443703514	114.687407028	954	429	green	green
2017-04-17 15:16:37.295000	1	14	change	8	1.04338215703	0	0	noChange	-114.687407028	-37.9311105419	949	420	blue	white
2017-04-17 15:16:40.636000	1	15	change	8	0.923870511637	1	0	change	37.9311105419	-191.443703514	-909	444	black	yellow
2017-04-17 15:16:44.359000	1	16	noChange	8	1.31041013297	1	0	noChange	-37.9311105419	-191.443703514	951	422	white	white
2017-04-17 15:16:48.004000	1	17	change	8	1.25825785757	0	0	noChange	-191.443703514	191.443703514	949	424	blue	magenta
2017-04-17 15:16:51.406000	1	18	noChange	8	1.00495202546	1	0	noChange	191.443703514	-37.9311105419	949	416	red	red
2017-04-17 15:16:54.525000	1	19	noChange	8	0.756106382743	1	0	noChange	114.687407028	37.9311105419	954	417	white	white
2017-04-17 15:16:57.731000	1	20	noChange	8	0.821023815457	1	0	noChange	-114.687407028	-191.443703514	950	416	white	white
2017-04-17 15:17:01.559000	1	21	noChange	8	1.37871047812	0	0	change	37.9311105419	-191.443703514	-905	444	white	white
2017-04-17 15:17:04.913000	1	22	change	8	0.912247497815	1	0	change	-114.687407028	-114.687407028	-903	444	red	black
2017-04-17 15:17:08.400000	1	23	change	8	1.08037208752	0	0	noChange	191.443703514	37.9311105419	939	415	green	yellow
2017-04-17 15:17:11.818000	1	24	change	8	0.977460114272	0	0	noChange	-114.687407028	191.443703514	952	418	magenta	white
2017-04-17 15:17:15.113000	1	25	noChange	8	0.883682415137	1	0	noChange	-37.9311105419	114.687407028	937	411	white	white
2017-04-17 15:17:18.630000	1	26	change	8	1.10490189759	0	0	noChange	-191.443703514	-191.443703514	948	413	yellow	blue
2017-04-17 15:17:21.996000	1	27	noChange	8	0.94576296376	1	0	noChange	37.9311105419	-37.9311105419	937	409	green	green
2017-04-17 15:17:25.292000	1	28	noChange	8	0.826385156897	1	0	noChange	-114.687407028	37.9311105419	936	409	yellow	yellow
2017-04-17 15:17:28.348000	1	29	noChange	8	0.670330667374	1	0	noChange	-191.443703514	-37.9311105419	940	411	green	green
2017-04-17 15:17:32.014000	1	30	change	8	1.21436785314	0	0	noChange	114.687407028	191.443703514	936	404	magenta	white
2017-04-17 15:17:35.676000	1	31	change	8	1.25259517418	0	0	noChange	114.687407028	-114.687407028	933	405	green	blue
2017-04-17 15:17:39.254000	1	32	change	8	1.1424867116	1	0	change	191.443703514	-191.443703514	-895	449	red	yellow
2017-04-17 15:17:42.516000	1	33	noChange	8	0.833123064525	1	0	noChange	37.9311105419	-114.687407028	949	410	blue	blue
2017-04-17 15:17:45.825000	1	34	change	8	0.925030719226	1	0	change	37.9311105419	-37.9311105419	-897	449	magenta	yellow
2017-04-17 15:17:49.229000	1	35	noChange	8	0.975735403698	0	0	change	-191.443703514	114.687407028	-897	450	yellow	yellow
2017-04-17 15:17:52.648000	1	36	noChange	8	1.00095205994	1	0	noChange	-114.687407028	-114.687407028	932	404	black	black
2017-04-17 15:17:56.053000	1	37	change	8	1.02768076309	0	0	noChange	191.443703514	114.687407028	932	399	white	red
2017-04-17 15:17:59.364000	1	38	change	8	0.882009023016	1	0	change	-114.687407028	37.9311105419	-890	446	red	green
2017-04-17 15:18:02.758000	1	39	noChange	8	0.969234792598	1	0	noChange	-114.687407028	114.687407028	938	400	green	green
2017-04-17 15:18:06.033000	1	40	noChange	8	0.837504018235	1	0	noChange	-191.443703514	191.443703514	945	405	yellow	yellow
2017-04-17 15:18:09.207000	1	41	change	8	0.7601248229	0	0	noChange	191.443703514	-114.687407028	949	408	white	green
2017-04-17 15:18:12.486000	1	42	noChange	8	0.820228584707	1	0	noChange	-191.443703514	-191.443703514	949	403	yellow	yellow
2017-04-17 15:18:16.046000	1	43	change	8	1.1155671038	0	0	noChange	114.687407028	-37.9311105419	945	402	red	blue
2017-04-17 15:18:19.157000	1	44	change	8	0.693905543666	0	0	noChange	37.9311105419	191.443703514	945	410	green	white
2017-04-17 15:18:22.585000	1	45	change	8	0.999011401318	0	0	noChange	114.687407028	114.687407028	935	404	blue	yellow
2017-04-17 15:18:25.985000	1	46	change	8	0.94741049138	1	0	change	-114.687407028	114.687407028	-889	441	blue	black
2017-04-17 15:18:29.338000	1	47	noChange	8	0.909517766654	1	0	noChange	-114.687407028	-37.9311105419	924	397	yellow	yellow
2017-04-17 15:18:32.741000	1	48	noChange	8	0.951040553484	1	0	noChange	-114.687407028	191.443703514	920	389	red	red
2017-04-17 15:18:36.766000	1	49	change	8	1.57833228165	0	0	noChange	-191.443703514	37.9311105419	933	391	red	green
2017-04-17 15:18:40.081000	1	50	change	8	0.927463213906	1	0	change	37.9311105419	37.9311105419	-902	436	red	black
2017-04-17 15:18:43.651000	1	51	change	8	1.20298500967	0	0	noChange	37.9311105419	-114.687407028	931	397	yellow	magenta
2017-04-17 15:18:47.151000	1	52	change	8	1.05583529815	1	0	change	-37.9311105419	37.9311105419	-895	436	green	black
2017-04-17 15:18:50.601000	1	53	change	8	1.00217959734	0	0	noChange	-191.443703514	-114.687407028	942	408	green	black
2017-04-17 15:18:54.079000	1	54	noChange	8	1.03620947946	1	0	noChange	191.443703514	-114.687407028	946	401	black	black
2017-04-17 15:18:57.622000	1	55	noChange	8	1.1225271177	1	0	noChange	114.687407028	-37.9311105419	944	400	green	green
2017-04-17 15:19:01.143000	1	56	change	8	1.07852872869	1	0	change	-191.443703514	-37.9311105419	-898	436	white	magenta
2017-04-17 15:19:04.871000	1	57	change	8	1.26959389861	0	0	noChange	37.9311105419	114.687407028	930	390	blue	magenta
2017-04-17 15:19:08.060000	1	58	noChange	8	0.764588296683	1	0	noChange	-191.443703514	-114.687407028	927	384	red	red
2017-04-17 15:19:11.378000	1	59	change	8	0.88660879861	0	0	noChange	-191.443703514	114.687407028	924	391	yellow	white
2017-04-17 15:19:14.584000	1	60	change	8	0.736173063888	0	0	noChange	114.687407028	37.9311105419	930	394	red	green
2017-04-17 15:19:17.909000	1	61	noChange	8	0.889244924913	1	0	noChange	-37.9311105419	-114.687407028	938	391	red	red
2017-04-17 15:19:21.253000	1	62	noChange	8	0.933722423003	1	0	noChange	114.687407028	191.443703514	940	390	black	black
2017-04-17 15:19:24.552000	1	63	change	8	0.843404408707	0	0	noChange	114.687407028	-191.443703514	945	393	yellow	black
2017-04-17 15:19:27.691000	1	64	change	8	0.75015426327	0	0	noChange	191.443703514	-37.9311105419	939	387	red	yellow
2017-04-17 15:19:30.915000	1	65	noChange	8	0.825258203665	1	0	noChange	191.443703514	37.9311105419	947	379	green	green
2017-04-17 15:19:34.404000	1	66	change	8	1.06710975703	0	0	noChange	191.443703514	191.443703514	930	373	red	black
2017-04-17 15:19:37.697000	1	67	noChange	8	0.851236015208	1	0	noChange	-37.9311105419	37.9311105419	939	372	white	white
2017-04-17 15:19:40.795000	1	68	noChange	8	0.64976264189	1	0	noChange	37.9311105419	114.687407028	943	374	yellow	yellow
2017-04-17 15:19:43.939000	1	69	change	8	0.691791633943	0	0	noChange	-37.9311105419	-114.687407028	937	372	red	green
2017-04-17 15:19:47.519000	1	70	change	8	1.16268976024	1	0	change	-37.9311105419	-37.9311105419	-911	432	black	white
2017-04-17 15:19:50.769000	1	71	change	8	0.805905399153	0	0	noChange	-37.9311105419	-191.443703514	933	376	white	yellow
2017-04-17 15:19:54.071000	1	72	noChange	8	0.909096134242	1	0	noChange	-191.443703514	37.9311105419	936	370	red	red
