datetime	block	trial	trial_type	setSize	RT	accuracy	timeout	clickedObject	Targ_X	Targ_Y	Click_X	Click_Y	target_start_color	target_end_color
2017-04-24 10:19:40.477000	1	1	noChange	8	1.5545532251	1	0	noChange	114.687407028	-191.443703514	968	135	red	red
2017-04-24 10:19:44.336000	1	2	noChange	8	1.47209504353	1	0	noChange	-37.9311105419	-37.9311105419	963	129	blue	blue
2017-04-24 10:19:49.023000	1	3	noChange	8	NA	0	1	NA	191.443703514	191.443703514	NA	NA	red	red
2017-04-24 10:19:53.277000	1	4	change	8	1.83644542502	0	0	noChange	191.443703514	37.9311105419	971	137	blue	red
2017-04-24 10:19:57.339000	1	5	change	8	1.6934030663	1	0	change	-114.687407028	-114.687407028	-939	235	green	blue
2017-04-24 10:20:01.905000	1	6	change	8	NA	0	1	NA	37.9311105419	37.9311105419	NA	NA	black	green
2017-04-24 10:20:05.829000	1	7	change	8	1.55872110973	1	0	change	-191.443703514	-114.687407028	-933	231	red	green
2017-04-24 10:20:10.047000	1	8	noChange	8	1.81201042135	1	0	noChange	37.9311105419	114.687407028	949	129	blue	blue
2017-04-24 10:20:13.906000	1	9	change	8	1.49378019582	0	0	noChange	114.687407028	-114.687407028	958	131	white	magenta
2017-04-24 10:20:18.122000	1	10	noChange	8	1.80213797045	1	0	noChange	-191.443703514	191.443703514	964	138	black	black
2017-04-24 10:20:21.849000	1	11	change	8	1.30090386277	0	0	noChange	191.443703514	191.443703514	945	127	green	magenta
2017-04-24 10:20:25.190000	1	12	change	8	0.970120307024	0	0	noChange	114.687407028	-191.443703514	949	128	yellow	blue
2017-04-24 10:20:28.753000	1	13	change	8	1.15060629748	1	0	change	-114.687407028	-37.9311105419	-936	227	black	white
2017-04-24 10:20:32.288000	1	14	change	8	1.11034055789	0	0	noChange	37.9311105419	-114.687407028	971	140	black	red
2017-04-24 10:20:35.644000	1	15	noChange	8	0.979707016432	1	0	noChange	191.443703514	37.9311105419	958	133	yellow	yellow
2017-04-24 10:20:39.846000	1	16	noChange	8	1.77435166239	1	0	noChange	-191.443703514	114.687407028	952	130	magenta	magenta
2017-04-24 10:20:43.645000	1	17	noChange	8	1.40107842783	1	0	noChange	-114.687407028	-191.443703514	950	126	blue	blue
2017-04-24 10:20:47.657000	1	18	change	8	1.63827261053	1	0	change	37.9311105419	-37.9311105419	-903	203	green	red
2017-04-24 10:20:51.658000	1	19	change	8	1.6042972894	1	0	change	-114.687407028	-191.443703514	-904	195	green	blue
2017-04-24 10:20:55.748000	1	20	noChange	8	1.69342769919	1	0	noChange	-37.9311105419	-191.443703514	952	127	black	black
2017-04-24 10:21:00.291000	1	21	noChange	8	2.09898438603	1	0	noChange	114.687407028	37.9311105419	968	134	blue	blue
2017-04-24 10:21:04.079000	1	22	change	8	1.36843164045	1	0	change	-191.443703514	-191.443703514	-933	206	white	red
2017-04-24 10:21:08.499000	1	23	change	8	2.01574985795	0	0	noChange	37.9311105419	-191.443703514	980	139	yellow	blue
2017-04-24 10:21:12.585000	1	24	change	8	1.64365202269	0	0	noChange	-37.9311105419	114.687407028	979	140	black	blue
2017-04-24 10:21:16.484000	1	25	change	8	1.53743583133	1	0	change	-37.9311105419	191.443703514	-916	194	blue	magenta
2017-04-24 10:21:21.118000	1	26	change	8	NA	0	1	NA	37.9311105419	114.687407028	NA	NA	white	yellow
2017-04-24 10:21:24.558000	1	27	noChange	8	1.03694071028	1	0	noChange	114.687407028	114.687407028	947	123	green	green
2017-04-24 10:21:28.999000	1	28	change	8	2.04436136775	0	0	noChange	191.443703514	114.687407028	927	109	blue	green
2017-04-24 10:21:32.915000	1	29	noChange	8	1.51076908802	0	0	change	-191.443703514	37.9311105419	-958	138	white	white
2017-04-24 10:21:36.538000	1	30	noChange	8	1.21993514982	1	0	noChange	37.9311105419	37.9311105419	933	115	green	green
2017-04-24 10:21:40.118000	1	31	noChange	8	1.16166892742	1	0	noChange	191.443703514	-191.443703514	935	110	blue	blue
2017-04-24 10:21:43.778000	1	32	noChange	8	1.24402365086	0	0	change	191.443703514	-37.9311105419	-926	136	blue	blue
2017-04-24 10:21:47.501000	1	33	change	8	1.33209115154	1	0	change	-37.9311105419	-37.9311105419	-934	140	green	blue
2017-04-24 10:21:51.198000	1	34	change	8	1.29395697784	1	0	change	-114.687407028	191.443703514	-950	142	white	yellow
2017-04-24 10:21:55.057000	1	35	noChange	8	1.4735089713	1	0	noChange	-191.443703514	-114.687407028	957	123	blue	blue
2017-04-24 10:21:59.503000	1	36	noChange	8	2.05291103258	1	0	noChange	114.687407028	-37.9311105419	945	116	red	red
2017-04-24 10:22:03.327000	1	37	change	8	1.45168217991	0	0	noChange	114.687407028	191.443703514	960	126	white	yellow
2017-04-24 10:22:06.891000	1	38	change	8	1.17739127864	1	0	change	-37.9311105419	37.9311105419	-963	142	yellow	red
2017-04-24 10:22:10.820000	1	39	noChange	8	1.56009439323	1	0	noChange	-37.9311105419	114.687407028	955	126	green	green
2017-04-24 10:22:14.760000	1	40	noChange	8	1.53727571756	1	0	noChange	37.9311105419	-37.9311105419	944	122	green	green
2017-04-24 10:22:18.738000	1	41	change	8	1.60649495354	1	0	change	-114.687407028	37.9311105419	-960	138	red	white
2017-04-24 10:22:22.876000	1	42	noChange	8	1.71453767354	1	0	noChange	191.443703514	-114.687407028	956	130	black	black
2017-04-24 10:22:26.621000	1	43	change	8	1.34466706189	0	0	noChange	114.687407028	-37.9311105419	929	117	white	magenta
2017-04-24 10:22:30.849000	1	44	noChange	8	1.80486154675	0	0	change	-114.687407028	-37.9311105419	-979	137	green	green
2017-04-24 10:22:34.538000	1	45	noChange	8	1.31822119348	1	0	noChange	-114.687407028	37.9311105419	944	127	yellow	yellow
2017-04-24 10:22:38.589000	1	46	noChange	8	1.65284337425	1	0	noChange	-37.9311105419	191.443703514	934	121	blue	blue
2017-04-24 10:22:42.346000	1	47	change	8	1.34377329861	1	0	change	-191.443703514	37.9311105419	-956	134	blue	yellow
2017-04-24 10:22:46.810000	1	48	noChange	8	2.06739640228	1	0	noChange	191.443703514	114.687407028	926	112	green	green
2017-04-24 10:22:50.750000	1	49	change	8	1.535837978	1	0	change	37.9311105419	191.443703514	-961	134	green	yellow
2017-04-24 10:22:54.475000	1	50	noChange	8	1.27256208309	1	0	noChange	37.9311105419	-114.687407028	942	121	magenta	magenta
2017-04-24 10:22:58.519000	1	51	noChange	8	1.63748312647	1	0	noChange	-191.443703514	-191.443703514	958	126	magenta	magenta
2017-04-24 10:23:02.505000	1	52	noChange	8	1.58818491745	1	0	noChange	37.9311105419	191.443703514	936	118	green	green
2017-04-24 10:23:06.918000	1	53	noChange	8	1.9859966138	0	0	change	-37.9311105419	37.9311105419	-963	140	green	green
2017-04-24 10:23:10.823000	1	54	change	8	1.51111559065	0	0	noChange	191.443703514	-191.443703514	946	123	white	magenta
2017-04-24 10:23:14.200000	1	55	change	8	0.999416200558	1	0	change	-191.443703514	191.443703514	-956	139	blue	white
2017-04-24 10:23:18.308000	1	56	noChange	8	1.6858038204	0	0	change	114.687407028	-114.687407028	-962	140	green	green
2017-04-24 10:23:21.898000	1	57	noChange	8	1.17886925192	1	0	noChange	-114.687407028	191.443703514	956	125	magenta	magenta
2017-04-24 10:23:25.883000	1	58	noChange	8	1.5869536836	1	0	noChange	37.9311105419	-191.443703514	943	120	yellow	yellow
2017-04-24 10:23:29.716000	1	59	noChange	8	1.42917223644	0	0	change	-37.9311105419	-114.687407028	-940	134	yellow	yellow
2017-04-24 10:23:33.540000	1	60	change	8	1.40205512183	1	0	change	114.687407028	37.9311105419	-932	134	black	red
2017-04-24 10:23:37.759000	1	61	noChange	8	1.829122478	1	0	noChange	-114.687407028	-114.687407028	943	119	red	red
2017-04-24 10:23:41.265000	1	62	change	8	1.10782964552	1	0	change	-191.443703514	114.687407028	-937	135	green	yellow
2017-04-24 10:23:44.785000	1	63	noChange	8	1.11910740268	0	0	change	114.687407028	191.443703514	-938	135	magenta	magenta
2017-04-24 10:23:48.685000	1	64	change	8	1.51947722443	0	0	noChange	-191.443703514	-37.9311105419	939	116	magenta	green
2017-04-24 10:23:52.490000	1	65	change	8	1.40315128534	0	0	noChange	191.443703514	-114.687407028	951	120	red	blue
2017-04-24 10:23:56.791000	1	66	change	8	1.86034137898	0	0	noChange	-37.9311105419	-191.443703514	942	117	yellow	red
2017-04-24 10:24:00.597000	1	67	noChange	8	1.39424198035	0	0	change	-191.443703514	-37.9311105419	-924	132	white	white
2017-04-24 10:24:04.218000	1	68	noChange	8	1.24399942852	1	0	noChange	-114.687407028	114.687407028	952	120	yellow	yellow
2017-04-24 10:24:07.937000	1	69	change	8	1.34179815155	0	0	noChange	114.687407028	114.687407028	950	118	yellow	green
2017-04-24 10:24:11.447000	1	70	change	8	1.10837074795	1	0	change	-37.9311105419	-114.687407028	-930	133	white	magenta
2017-04-24 10:24:15.712000	1	71	change	8	1.86448832565	1	0	change	-114.687407028	114.687407028	-933	133	green	red
2017-04-24 10:24:19.432000	1	72	change	8	1.30001748935	0	0	noChange	191.443703514	-37.9311105419	938	113	magenta	yellow
