datetime	block	trial	trial_type	setSize	RT	accuracy	timeout	clickedObject	Targ_X	Targ_Y	Click_X	Click_Y	target_start_color	target_end_color
2017-04-21 12:19:07.060000	1	1	noChange	8	1.61222437896	1	0	noChange	191.443703514	114.687407028	972	123	blue	blue
2017-04-21 12:19:10.254000	1	2	noChange	8	0.756884059756	1	0	noChange	-37.9311105419	-37.9311105419	954	58	black	black
2017-04-21 12:19:13.598000	1	3	change	8	0.95269425874	1	0	change	-114.687407028	-37.9311105419	-960	134	red	magenta
2017-04-21 12:19:16.935000	1	4	change	8	0.932258027434	1	0	change	191.443703514	-37.9311105419	-932	123	yellow	magenta
2017-04-21 12:19:20.228000	1	5	noChange	8	0.87758378042	1	0	noChange	114.687407028	37.9311105419	938	151	yellow	yellow
2017-04-21 12:19:23.805000	1	6	change	8	1.16278904594	1	0	change	37.9311105419	191.443703514	-966	107	green	magenta
2017-04-21 12:19:27.128000	1	7	change	8	0.935765744906	0	0	noChange	191.443703514	-114.687407028	915	126	green	magenta
2017-04-21 12:19:30.514000	1	8	change	8	0.976753160805	1	0	change	-191.443703514	37.9311105419	-953	99	white	blue
2017-04-21 12:19:33.895000	1	9	change	8	0.964487644985	1	0	change	37.9311105419	-37.9311105419	-993	120	white	yellow
2017-04-21 12:19:37.287000	1	10	noChange	8	1.02596302117	1	0	noChange	114.687407028	191.443703514	911	95	green	green
2017-04-21 12:19:40.577000	1	11	noChange	8	0.896227150981	1	0	noChange	191.443703514	-37.9311105419	915	80	magenta	magenta
2017-04-21 12:19:43.837000	1	12	change	8	0.866637764126	1	0	change	191.443703514	114.687407028	-970	97	black	yellow
2017-04-21 12:19:47.277000	1	13	noChange	8	1.04334231611	1	0	noChange	-37.9311105419	191.443703514	914	84	yellow	yellow
2017-04-21 12:19:50.780000	1	14	change	8	1.13787127859	1	0	change	-114.687407028	-114.687407028	-940	75	red	yellow
2017-04-21 12:19:54.133000	1	15	change	8	0.986477387867	0	0	noChange	-191.443703514	-37.9311105419	921	83	red	white
2017-04-21 12:19:57.445000	1	16	noChange	8	0.899310772929	1	0	noChange	-191.443703514	191.443703514	909	82	blue	blue
2017-04-21 12:20:00.971000	1	17	noChange	8	1.12750782914	1	0	noChange	-114.687407028	-114.687407028	927	87	blue	blue
2017-04-21 12:20:04.310000	1	18	noChange	8	0.92785490596	1	0	noChange	-191.443703514	-191.443703514	922	83	white	white
2017-04-21 12:20:07.722000	1	19	change	8	1.0123492675	1	0	change	-191.443703514	114.687407028	-941	88	yellow	blue
2017-04-21 12:20:11.115000	1	20	change	8	0.963628369158	0	0	noChange	-37.9311105419	114.687407028	942	89	red	yellow
2017-04-21 12:20:14.737000	1	21	noChange	8	1.21064779462	1	0	noChange	-114.687407028	37.9311105419	937	89	yellow	yellow
2017-04-21 12:20:18.482000	1	22	change	8	1.32998449773	0	0	noChange	37.9311105419	-191.443703514	938	87	magenta	white
2017-04-21 12:20:21.755000	1	23	change	8	0.894890819009	1	0	change	-191.443703514	-191.443703514	-967	90	green	magenta
2017-04-21 12:20:25.182000	1	24	change	8	1.06584154839	1	0	change	-37.9311105419	-114.687407028	-937	67	red	magenta
2017-04-21 12:20:28.484000	1	25	noChange	8	0.896226329886	1	0	noChange	-37.9311105419	-191.443703514	926	80	black	black
2017-04-21 12:20:31.741000	1	26	change	8	0.860084195072	1	0	change	-37.9311105419	37.9311105419	-917	60	red	black
2017-04-21 12:20:35.139000	1	27	noChange	8	1.00139298752	1	0	noChange	191.443703514	191.443703514	924	79	magenta	magenta
2017-04-21 12:20:38.389000	1	28	noChange	8	0.834841274142	1	0	noChange	114.687407028	114.687407028	942	83	magenta	magenta
2017-04-21 12:20:41.635000	1	29	noChange	8	0.846642871336	1	0	noChange	37.9311105419	-37.9311105419	939	79	yellow	yellow
2017-04-21 12:20:44.762000	1	30	noChange	8	0.761542952296	1	0	noChange	-37.9311105419	-114.687407028	932	77	yellow	yellow
2017-04-21 12:20:48.131000	1	31	change	8	0.991923299882	1	0	change	-114.687407028	37.9311105419	-965	107	magenta	white
2017-04-21 12:20:51.360000	1	32	change	8	0.803846993889	1	0	change	191.443703514	191.443703514	-943	75	yellow	red
2017-04-21 12:20:54.928000	1	33	noChange	8	1.16595272464	1	0	noChange	-114.687407028	-37.9311105419	913	67	green	green
2017-04-21 12:20:58.315000	1	34	change	8	0.994282716116	1	0	change	-114.687407028	114.687407028	-894	79	white	green
2017-04-21 12:21:01.787000	1	35	noChange	8	1.04932563475	1	0	noChange	-114.687407028	114.687407028	923	83	yellow	yellow
2017-04-21 12:21:05.029000	1	36	noChange	8	0.893935885625	1	0	noChange	37.9311105419	114.687407028	917	82	black	black
2017-04-21 12:21:08.290000	1	37	change	8	0.862161565204	1	0	change	114.687407028	191.443703514	-904	62	yellow	red
2017-04-21 12:21:11.579000	1	38	noChange	8	0.860709869397	1	0	noChange	37.9311105419	37.9311105419	933	81	green	green
2017-04-21 12:21:14.947000	1	39	noChange	8	0.95127048016	0	0	change	191.443703514	-191.443703514	-912	75	red	red
2017-04-21 12:21:18.699000	1	40	noChange	8	1.33032484157	1	0	noChange	191.443703514	-114.687407028	934	72	black	black
2017-04-21 12:21:22.067000	1	41	noChange	8	0.940300652114	1	0	noChange	-37.9311105419	37.9311105419	926	59	white	white
2017-04-21 12:21:25.458000	1	42	noChange	8	0.985362340974	1	0	noChange	-191.443703514	-37.9311105419	908	58	red	red
2017-04-21 12:21:28.922000	1	43	change	8	1.03809141414	1	0	change	114.687407028	114.687407028	-942	65	red	yellow
2017-04-21 12:21:32.255000	1	44	noChange	8	0.903500820274	1	0	noChange	114.687407028	-191.443703514	914	60	yellow	yellow
2017-04-21 12:21:35.625000	1	45	change	8	0.983372417451	1	0	change	191.443703514	37.9311105419	-946	72	white	green
2017-04-21 12:21:39.048000	1	46	change	8	1.01659145437	1	0	change	-37.9311105419	191.443703514	-912	41	white	blue
2017-04-21 12:21:42.303000	1	47	noChange	8	0.836347572761	1	0	noChange	-114.687407028	191.443703514	927	77	magenta	magenta
2017-04-21 12:21:45.524000	1	48	noChange	8	0.826586806975	1	0	noChange	-191.443703514	37.9311105419	928	80	magenta	magenta
2017-04-21 12:21:48.813000	1	49	noChange	8	0.889803725472	1	0	noChange	37.9311105419	-114.687407028	934	69	white	white
2017-04-21 12:21:52.065000	1	50	change	8	0.827405849152	1	0	change	37.9311105419	114.687407028	-958	84	white	yellow
2017-04-21 12:21:55.580000	1	51	change	8	1.06594418525	1	0	change	37.9311105419	-114.687407028	-928	51	blue	red
2017-04-21 12:21:59.107000	1	52	change	8	1.13620568756	1	0	change	37.9311105419	37.9311105419	-918	51	red	blue
2017-04-21 12:22:02.759000	1	53	change	8	1.24508410475	0	0	noChange	114.687407028	-191.443703514	958	87	white	magenta
2017-04-21 12:22:06.075000	1	54	noChange	8	0.885268407716	1	0	noChange	114.687407028	-37.9311105419	951	84	black	black
2017-04-21 12:22:09.479000	1	55	noChange	8	0.983825251296	1	0	noChange	191.443703514	37.9311105419	950	86	red	red
2017-04-21 12:22:12.779000	1	56	change	8	0.910563057626	1	0	change	114.687407028	37.9311105419	-915	53	magenta	red
2017-04-21 12:22:16.587000	1	57	change	8	1.39807379344	0	0	noChange	114.687407028	-114.687407028	949	84	blue	green
2017-04-21 12:22:19.868000	1	58	noChange	8	0.886268501321	1	0	noChange	-114.687407028	-191.443703514	953	86	yellow	yellow
2017-04-21 12:22:23.336000	1	59	change	8	1.01832068026	1	0	change	-114.687407028	-191.443703514	-952	72	magenta	black
2017-04-21 12:22:26.725000	1	60	noChange	8	0.996820309947	1	0	noChange	-37.9311105419	114.687407028	947	83	yellow	yellow
2017-04-21 12:22:29.994000	1	61	change	8	0.896801096326	1	0	change	-191.443703514	-114.687407028	-937	78	black	magenta
2017-04-21 12:22:33.190000	1	62	noChange	8	0.793994265473	1	0	noChange	114.687407028	-114.687407028	951	85	magenta	magenta
2017-04-21 12:22:36.407000	1	63	noChange	8	0.815946648537	1	0	noChange	-191.443703514	114.687407028	945	82	white	white
2017-04-21 12:22:39.643000	1	64	change	8	0.833962702585	1	0	change	114.687407028	-37.9311105419	-924	49	yellow	blue
2017-04-21 12:22:43.045000	1	65	noChange	8	0.98419269127	1	0	noChange	37.9311105419	-191.443703514	950	84	magenta	magenta
2017-04-21 12:22:46.370000	1	66	change	8	0.896331430035	1	0	change	191.443703514	-191.443703514	-946	81	magenta	green
2017-04-21 12:22:49.686000	1	67	change	8	0.877948346561	1	0	change	-114.687407028	191.443703514	-929	52	white	blue
2017-04-21 12:22:53.068000	1	68	noChange	8	0.976579499231	0	0	change	-191.443703514	-114.687407028	-945	64	magenta	magenta
2017-04-21 12:22:56.625000	1	69	change	8	1.13817262043	1	0	change	-37.9311105419	-37.9311105419	-942	64	red	white
2017-04-21 12:23:00.638000	1	70	noChange	8	1.60643319654	1	0	noChange	37.9311105419	191.443703514	932	81	black	black
2017-04-21 12:23:04.045000	1	71	change	8	1.01063235804	1	0	change	-37.9311105419	-191.443703514	-950	83	blue	black
2017-04-21 12:23:07.247000	1	72	change	8	0.796848391393	1	0	change	-191.443703514	191.443703514	-936	63	black	magenta
