datetime	block	trial	trial_type	setSize	RT	accuracy	timeout	clickedObject	Targ_X	Targ_Y	Click_X	Click_Y	target_start_color	target_end_color
2017-04-24 12:13:28.503000	1	1	noChange	8	NA	0	1	NA	37.9311105419	37.9311105419	NA	NA	magenta	magenta
2017-04-24 12:13:33.153000	1	2	change	8	NA	0	1	NA	114.687407028	191.443703514	NA	NA	green	red
2017-04-24 12:13:36.896000	1	3	change	8	1.31647636392	0	0	noChange	-114.687407028	191.443703514	1000	112	magenta	yellow
2017-04-24 12:13:41.505000	1	4	change	8	NA	0	1	NA	114.687407028	-37.9311105419	NA	NA	black	yellow
2017-04-24 12:13:46.118000	1	5	noChange	8	NA	0	1	NA	-37.9311105419	37.9311105419	NA	NA	white	white
2017-04-24 12:13:50.709000	1	6	noChange	8	NA	0	1	NA	114.687407028	-191.443703514	NA	NA	white	white
2017-04-24 12:13:54.538000	1	7	noChange	8	1.42173926252	1	0	noChange	-191.443703514	37.9311105419	930	67	black	black
2017-04-24 12:13:57.961000	1	8	noChange	8	1.00381686597	0	0	change	114.687407028	191.443703514	-1072	133	white	white
2017-04-24 12:14:01.608000	1	9	noChange	8	1.24276860522	1	0	noChange	37.9311105419	191.443703514	914	364	yellow	yellow
2017-04-24 12:14:05.019000	1	10	change	8	1.00978459361	1	0	change	-37.9311105419	114.687407028	-946	540	yellow	red
2017-04-24 12:14:08.305000	1	11	change	8	0.915080171839	1	0	change	-37.9311105419	-191.443703514	-919	504	black	green
2017-04-24 12:14:11.659000	1	12	noChange	8	0.947488020206	0	0	change	-114.687407028	37.9311105419	-914	498	white	white
2017-04-24 12:14:14.876000	1	13	change	8	0.816805623524	1	0	change	-114.687407028	-191.443703514	-918	536	blue	magenta
2017-04-24 12:14:18.812000	1	14	change	8	1.52666386947	0	0	noChange	-191.443703514	-191.443703514	924	500	magenta	red
2017-04-24 12:14:23.461000	1	15	noChange	8	NA	0	1	NA	37.9311105419	-37.9311105419	NA	NA	blue	blue
2017-04-24 12:14:26.987000	1	16	noChange	8	1.09343541749	1	0	noChange	37.9311105419	-114.687407028	923	495	red	red
2017-04-24 12:14:30.141000	1	17	change	8	0.717229637634	1	0	change	-191.443703514	37.9311105419	-916	511	red	green
2017-04-24 12:14:34.187000	1	18	noChange	8	1.61946581119	1	0	noChange	191.443703514	-191.443703514	922	496	red	red
2017-04-24 12:14:38.192000	1	19	noChange	8	1.61947237996	0	0	change	114.687407028	-37.9311105419	-914	522	white	white
2017-04-24 12:14:41.651000	1	20	noChange	8	1.04777877039	1	0	noChange	-114.687407028	114.687407028	912	493	magenta	magenta
2017-04-24 12:14:45.766000	1	21	noChange	8	1.70995759859	1	0	noChange	-37.9311105419	114.687407028	896	486	black	black
2017-04-24 12:14:50.378000	1	22	change	8	NA	0	1	NA	-191.443703514	191.443703514	NA	NA	magenta	black
2017-04-24 12:14:53.978000	1	23	noChange	8	1.20174663597	0	0	change	191.443703514	114.687407028	-864	511	yellow	yellow
2017-04-24 12:14:58.460000	1	24	noChange	8	2.14477856676	1	0	noChange	191.443703514	191.443703514	941	131	green	green
2017-04-24 12:15:02.017000	1	25	change	8	1.16974112477	1	0	change	114.687407028	-114.687407028	-1031	188	white	black
2017-04-24 12:15:05.721000	1	26	noChange	8	1.31184250717	1	0	noChange	-191.443703514	191.443703514	948	131	green	green
2017-04-24 12:15:09.075000	1	27	noChange	8	0.916861129631	0	0	change	-114.687407028	-37.9311105419	-982	199	white	white
2017-04-24 12:15:12.419000	1	28	change	8	0.929338918978	1	0	change	-191.443703514	-37.9311105419	-952	178	yellow	red
2017-04-24 12:15:15.687000	1	29	change	8	0.890757658365	1	0	change	114.687407028	114.687407028	-974	188	green	black
2017-04-24 12:15:18.864000	1	30	change	8	0.800135727212	1	0	change	-114.687407028	114.687407028	-958	179	green	yellow
2017-04-24 12:15:22.411000	1	31	noChange	8	1.13632127526	1	0	noChange	-37.9311105419	-37.9311105419	956	133	yellow	yellow
2017-04-24 12:15:26.357000	1	32	change	8	1.51752794191	0	0	noChange	114.687407028	-191.443703514	958	129	red	yellow
2017-04-24 12:15:29.698000	1	33	noChange	8	0.967244827915	0	0	change	-191.443703514	-37.9311105419	-942	179	red	red
2017-04-24 12:15:32.916000	1	34	noChange	8	0.800357833751	0	0	change	-37.9311105419	191.443703514	-928	168	green	green
2017-04-24 12:15:36.838000	1	35	noChange	8	1.5377043298	1	0	noChange	114.687407028	114.687407028	956	130	white	white
2017-04-24 12:15:40.203000	1	36	change	8	0.953410176996	1	0	change	191.443703514	-37.9311105419	-935	172	black	red
2017-04-24 12:15:43.530000	1	37	change	8	0.948670809371	1	0	change	191.443703514	191.443703514	-951	181	black	magenta
2017-04-24 12:15:47.012000	1	38	noChange	8	1.08682353984	1	0	noChange	191.443703514	37.9311105419	945	129	yellow	yellow
2017-04-24 12:15:50.069000	1	39	change	8	0.665692299102	1	0	change	-191.443703514	-114.687407028	-951	156	blue	yellow
2017-04-24 12:15:53.609000	1	40	noChange	8	1.15006560559	1	0	noChange	37.9311105419	114.687407028	951	110	green	green
2017-04-24 12:15:57.073000	1	41	change	8	1.07797745927	1	0	change	37.9311105419	-191.443703514	-962	166	blue	green
2017-04-24 12:16:00.323000	1	42	change	8	0.835608727925	1	0	change	-114.687407028	37.9311105419	-969	167	magenta	red
2017-04-24 12:16:04.979000	1	43	noChange	8	NA	0	1	NA	-191.443703514	-191.443703514	NA	NA	black	black
2017-04-24 12:16:08.741000	1	44	noChange	8	1.36094529528	1	0	noChange	-191.443703514	114.687407028	942	113	blue	blue
2017-04-24 12:16:12.078000	1	45	change	8	0.932732509829	1	0	change	-114.687407028	-114.687407028	-959	167	blue	black
2017-04-24 12:16:15.746000	1	46	noChange	8	1.26222612334	1	0	noChange	-191.443703514	-114.687407028	945	110	black	black
2017-04-24 12:16:19.178000	1	47	noChange	8	1.0399783559	1	0	noChange	114.687407028	37.9311105419	951	120	yellow	yellow
2017-04-24 12:16:22.335000	1	48	change	8	0.764561321111	1	0	change	191.443703514	37.9311105419	-956	163	yellow	white
2017-04-24 12:16:25.791000	1	49	change	8	1.06336071416	1	0	change	-191.443703514	114.687407028	-957	163	yellow	white
2017-04-24 12:16:28.932000	1	50	change	8	0.717499367756	1	0	change	-37.9311105419	191.443703514	-962	163	yellow	red
2017-04-24 12:16:32.530000	1	51	noChange	8	1.19707418769	1	0	noChange	-114.687407028	-191.443703514	953	113	black	black
2017-04-24 12:16:35.600000	1	52	change	8	0.693787749901	1	0	change	191.443703514	-191.443703514	-960	162	black	magenta
2017-04-24 12:16:39.282000	1	53	noChange	8	1.30937716564	1	0	noChange	191.443703514	-114.687407028	954	109	black	black
2017-04-24 12:16:43.014000	1	54	noChange	8	1.32283041735	1	0	noChange	-37.9311105419	-191.443703514	912	77	magenta	magenta
2017-04-24 12:16:45.946000	1	55	change	8	0.542802516496	1	0	change	114.687407028	37.9311105419	-973	165	yellow	white
2017-04-24 12:16:49.696000	1	56	change	8	1.36529423163	0	0	noChange	37.9311105419	114.687407028	996	105	green	black
2017-04-24 12:16:53.760000	1	57	noChange	8	1.66712059605	1	0	noChange	114.687407028	-114.687407028	955	92	white	white
2017-04-24 12:16:57.518000	1	58	change	8	1.38224289013	1	0	change	37.9311105419	-37.9311105419	-980	171	black	red
2017-04-24 12:17:01.357000	1	59	change	8	1.42068251163	1	0	change	-37.9311105419	-114.687407028	-972	166	black	white
2017-04-24 12:17:04.764000	1	60	change	8	1.02054506012	1	0	change	37.9311105419	-114.687407028	-955	154	white	blue
2017-04-24 12:17:08.147000	1	61	change	8	0.977004788633	1	0	change	191.443703514	-114.687407028	-974	157	magenta	green
2017-04-24 12:17:11.301000	1	62	noChange	8	0.767289002894	1	0	noChange	37.9311105419	-191.443703514	952	91	red	red
2017-04-24 12:17:14.351000	1	63	change	8	0.603868677148	1	0	change	37.9311105419	191.443703514	-974	159	red	black
2017-04-24 12:17:18.030000	1	64	noChange	8	1.29410190133	1	0	noChange	191.443703514	-37.9311105419	973	91	black	black
2017-04-24 12:17:22.121000	1	65	noChange	8	1.68095483642	0	0	change	-37.9311105419	-114.687407028	-972	157	white	white
2017-04-24 12:17:25.257000	1	66	change	8	0.71042521291	1	0	change	-37.9311105419	37.9311105419	-969	159	white	blue
2017-04-24 12:17:29.128000	1	67	change	8	1.46859388907	1	0	change	37.9311105419	37.9311105419	-921	121	blue	black
2017-04-24 12:17:32.857000	1	68	noChange	8	1.30179146782	1	0	noChange	-114.687407028	-114.687407028	978	89	green	green
2017-04-24 12:17:36.326000	1	69	change	8	1.05658625945	1	0	change	191.443703514	114.687407028	-951	116	blue	white
2017-04-24 12:17:39.540000	1	70	change	8	0.809913341501	1	0	change	-114.687407028	-37.9311105419	-965	120	blue	magenta
2017-04-24 12:17:43.164000	1	71	change	8	1.19459406643	0	0	noChange	-37.9311105419	-37.9311105419	973	85	green	blue
2017-04-24 12:17:46.771000	1	72	noChange	8	1.21632109462	0	0	change	-114.687407028	191.443703514	-978	126	black	black
