datetime	block	trial	trial_type	setSize	RT	accuracy	timeout	clickedObject	Targ_X	Targ_Y	Click_X	Click_Y	target_start_color	target_end_color
2017-04-14 10:14:35.763000	1	1	noChange	8	0.760470521195	1	0	noChange	114.687407028	37.9311105419	963	206	black	black
2017-04-14 10:14:39.356000	1	2	change	8	1.18762591003	0	0	noChange	-114.687407028	37.9311105419	939	184	magenta	white
2017-04-14 10:14:42.501000	1	3	noChange	8	0.714321197389	0	0	change	37.9311105419	114.687407028	-995	222	green	green
2017-04-14 10:14:45.840000	1	4	change	8	0.896833317801	0	0	noChange	114.687407028	114.687407028	974	182	yellow	white
2017-04-14 10:14:49.127000	1	5	change	8	0.904452683693	0	0	noChange	-191.443703514	-37.9311105419	963	176	green	yellow
2017-04-14 10:14:52.371000	1	6	noChange	8	0.850690562767	1	0	noChange	-37.9311105419	-114.687407028	970	170	magenta	magenta
2017-04-14 10:14:55.524000	1	7	noChange	8	0.781334996328	1	0	noChange	-114.687407028	191.443703514	976	168	black	black
2017-04-14 10:14:58.689000	1	8	noChange	8	0.794628550268	1	0	noChange	114.687407028	191.443703514	963	157	blue	blue
2017-04-14 10:15:01.858000	1	9	change	8	0.788282294653	1	0	change	37.9311105419	-114.687407028	-1058	231	white	magenta
2017-04-14 10:15:05.154000	1	10	noChange	8	0.897414654193	1	0	noChange	191.443703514	191.443703514	968	166	white	white
2017-04-14 10:15:08.378000	1	11	noChange	8	0.811913454776	1	0	noChange	191.443703514	114.687407028	987	169	red	red
2017-04-14 10:15:11.518000	1	12	noChange	8	0.730481199556	1	0	noChange	-191.443703514	-191.443703514	998	170	magenta	magenta
2017-04-14 10:15:14.702000	1	13	noChange	8	0.772280353581	1	0	noChange	191.443703514	-191.443703514	987	166	white	white
2017-04-14 10:15:17.820000	1	14	noChange	8	0.71455028334	1	0	noChange	114.687407028	-37.9311105419	997	167	red	red
2017-04-14 10:15:20.961000	1	15	noChange	8	0.745112730405	1	0	noChange	-191.443703514	-37.9311105419	966	145	black	black
2017-04-14 10:15:24.235000	1	16	change	8	0.880289863521	1	0	change	-37.9311105419	-37.9311105419	-981	177	white	yellow
2017-04-14 10:15:28.032000	1	17	noChange	8	1.37169688234	1	0	noChange	-114.687407028	-114.687407028	956	147	yellow	yellow
2017-04-14 10:15:31.329000	1	18	change	8	0.910221708398	1	0	change	114.687407028	-114.687407028	-930	148	black	red
2017-04-14 10:15:34.562000	1	19	noChange	8	0.851771946988	1	0	noChange	-37.9311105419	-191.443703514	995	114	blue	blue
2017-04-14 10:15:37.822000	1	20	change	8	0.834289568748	1	0	change	114.687407028	37.9311105419	-952	126	red	black
2017-04-14 10:15:41.187000	1	21	noChange	8	0.946168085864	1	0	noChange	37.9311105419	37.9311105419	961	82	red	red
2017-04-14 10:15:44.711000	1	22	noChange	8	1.1319087581	1	0	noChange	-114.687407028	114.687407028	982	90	white	white
2017-04-14 10:15:47.987000	1	23	noChange	8	0.888501650609	1	0	noChange	-191.443703514	191.443703514	949	75	green	green
2017-04-14 10:15:51.349000	1	24	change	8	0.927910181885	1	0	change	-114.687407028	191.443703514	-962	121	black	yellow
2017-04-14 10:15:54.596000	1	25	change	8	0.850215968933	1	0	change	191.443703514	-37.9311105419	-932	105	yellow	blue
2017-04-14 10:15:58.377000	1	26	change	8	1.34574160829	0	0	noChange	114.687407028	-191.443703514	958	81	magenta	red
2017-04-14 10:16:01.944000	1	27	change	8	1.19286902237	1	0	change	-191.443703514	191.443703514	-953	124	red	black
2017-04-14 10:16:05.289000	1	28	noChange	8	0.963363901391	1	0	noChange	-37.9311105419	37.9311105419	970	76	white	white
2017-04-14 10:16:08.682000	1	29	change	8	0.993962887255	1	0	change	-37.9311105419	-114.687407028	-990	131	yellow	blue
2017-04-14 10:16:12.548000	1	30	change	8	1.48515354712	1	0	change	-191.443703514	37.9311105419	-971	106	green	blue
2017-04-14 10:16:16.318000	1	31	change	8	1.34326189656	1	0	change	191.443703514	114.687407028	-951	100	green	black
2017-04-14 10:16:20.046000	1	32	noChange	8	1.3728279429	1	0	noChange	37.9311105419	-114.687407028	940	31	blue	blue
2017-04-14 10:16:23.679000	1	33	noChange	8	1.20328175889	1	0	noChange	114.687407028	-191.443703514	967	35	green	green
2017-04-14 10:16:27.295000	1	34	noChange	8	1.23295742163	1	0	noChange	191.443703514	-37.9311105419	963	139	red	red
2017-04-14 10:16:30.974000	1	35	change	8	1.27061701714	1	0	change	37.9311105419	191.443703514	-955	164	white	red
2017-04-14 10:16:35.586000	1	36	change	8	NA	0	1	NA	-37.9311105419	37.9311105419	NA	NA	black	magenta
2017-04-14 10:16:38.944000	1	37	change	8	0.956107460196	1	0	change	191.443703514	191.443703514	-898	129	white	yellow
2017-04-14 10:16:42.627000	1	38	noChange	8	1.26909880953	0	0	change	-37.9311105419	191.443703514	-938	153	red	red
2017-04-14 10:16:46.146000	1	39	change	8	1.13274217115	1	0	change	-191.443703514	-114.687407028	-941	144	yellow	blue
2017-04-14 10:16:49.843000	1	40	change	8	1.26428061469	1	0	change	-114.687407028	-191.443703514	-945	136	magenta	yellow
2017-04-14 10:16:53.579000	1	41	noChange	8	1.3604076252	1	0	noChange	37.9311105419	-37.9311105419	965	90	white	white
2017-04-14 10:16:56.639000	1	42	noChange	8	0.67275482425	1	0	noChange	-191.443703514	37.9311105419	897	70	black	black
2017-04-14 10:17:00.200000	1	43	noChange	8	1.13375170942	1	0	noChange	-37.9311105419	114.687407028	932	105	red	red
2017-04-14 10:17:03.495000	1	44	change	8	0.899035088332	1	0	change	37.9311105419	114.687407028	-931	89	yellow	black
2017-04-14 10:17:07.740000	1	45	change	8	1.81926514318	0	0	noChange	191.443703514	-191.443703514	1030	50	magenta	red
2017-04-14 10:17:11.527000	1	46	noChange	8	0.934622646583	1	0	noChange	114.687407028	114.687407028	990	57	yellow	yellow
2017-04-14 10:17:14.734000	1	47	noChange	8	0.866533621648	1	0	noChange	191.443703514	37.9311105419	1006	63	blue	blue
2017-04-14 10:17:17.855000	1	48	change	8	0.736802001177	1	0	change	-114.687407028	-37.9311105419	-920	65	magenta	white
2017-04-14 10:17:21.523000	1	49	noChange	8	1.25463190855	0	0	change	37.9311105419	191.443703514	-985	88	green	green
2017-04-14 10:17:24.969000	1	50	change	8	1.04591407963	0	0	noChange	191.443703514	-114.687407028	963	44	blue	magenta
2017-04-14 10:17:28.807000	1	51	noChange	8	1.44974868286	1	0	noChange	191.443703514	-114.687407028	1002	15	white	white
2017-04-14 10:17:32.022000	1	52	change	8	0.833973036009	1	0	change	114.687407028	191.443703514	-958	325	green	magenta
2017-04-14 10:17:35.703000	1	53	noChange	8	1.29326532464	0	0	change	114.687407028	-114.687407028	-915	245	red	red
2017-04-14 10:17:38.950000	1	54	change	8	0.836473275153	1	0	change	37.9311105419	-37.9311105419	-879	213	yellow	black
2017-04-14 10:17:43.004000	1	55	change	8	1.62198806372	0	0	noChange	191.443703514	37.9311105419	963	415	blue	magenta
2017-04-14 10:17:47.058000	1	56	noChange	8	1.68218511869	1	0	noChange	-37.9311105419	-37.9311105419	915	390	yellow	yellow
2017-04-14 10:17:50.752000	1	57	change	8	1.27880088695	1	0	change	37.9311105419	-191.443703514	-942	234	white	green
2017-04-14 10:17:54.651000	1	58	change	8	1.49921893186	1	0	change	-191.443703514	-191.443703514	-985	249	magenta	yellow
2017-04-14 10:17:58.184000	1	59	change	8	1.1398885854	0	0	noChange	-37.9311105419	-191.443703514	934	368	yellow	magenta
2017-04-14 10:18:01.893000	1	60	noChange	8	1.29854087029	1	0	noChange	-114.687407028	-191.443703514	921	358	blue	blue
2017-04-14 10:18:05.341000	1	61	change	8	1.01853338189	1	0	change	-37.9311105419	191.443703514	-929	217	yellow	magenta
2017-04-14 10:18:08.880000	1	62	change	8	1.16985450579	1	0	change	37.9311105419	37.9311105419	-959	226	white	black
2017-04-14 10:18:12.564000	1	63	noChange	8	1.23864351557	1	0	noChange	-114.687407028	-37.9311105419	945	367	red	red
2017-04-14 10:18:16.165000	1	64	change	8	1.20448466541	0	0	noChange	-114.687407028	-114.687407028	938	359	black	white
2017-04-14 10:18:19.659000	1	65	noChange	8	1.08268483808	1	0	noChange	-114.687407028	37.9311105419	959	361	magenta	magenta
2017-04-14 10:18:23.318000	1	66	change	8	1.24442075125	0	0	noChange	114.687407028	-37.9311105419	956	349	magenta	white
2017-04-14 10:18:26.685000	1	67	change	8	0.949427839362	1	0	change	-37.9311105419	114.687407028	-948	208	black	yellow
2017-04-14 10:18:30.646000	1	68	noChange	8	1.533832259	0	0	change	-191.443703514	114.687407028	-971	223	red	red
2017-04-14 10:18:34.209000	1	69	change	8	1.14919448371	1	0	change	-191.443703514	114.687407028	-959	353	green	blue
2017-04-14 10:18:37.817000	1	70	noChange	8	1.21637168087	1	0	noChange	-191.443703514	-114.687407028	908	326	magenta	magenta
2017-04-14 10:18:41.029000	1	71	change	8	0.838994452261	0	0	noChange	-114.687407028	114.687407028	933	299	magenta	white
2017-04-14 10:18:44.469000	1	72	noChange	8	1.01034417496	1	0	noChange	37.9311105419	-191.443703514	960	284	white	white
