datetime	block	trial	trial_type	setSize	RT	accuracy	timeout	clickedObject	Targ_X	Targ_Y	Click_X	Click_Y	target_start_color	target_end_color
2017-04-24 16:07:44.250000	1	1	noChange	8	1.17958976389	1	0	noChange	-191.443703514	-37.9311105419	968	109	black	black
2017-04-24 16:07:48.236000	1	2	change	8	1.53483788275	1	0	change	-191.443703514	114.687407028	-904	125	green	magenta
2017-04-24 16:07:52.302000	1	3	change	8	1.64621753796	0	0	noChange	37.9311105419	191.443703514	913	198	yellow	blue
2017-04-24 16:07:56.141000	1	4	noChange	8	1.42952366564	1	0	noChange	-37.9311105419	114.687407028	887	183	blue	blue
2017-04-24 16:07:59.989000	1	5	noChange	8	1.43586047604	1	0	noChange	-191.443703514	-114.687407028	888	160	yellow	yellow
2017-04-24 16:08:03.472000	1	6	noChange	8	1.07534297191	1	0	noChange	-114.687407028	-37.9311105419	893	172	blue	blue
2017-04-24 16:08:07.174000	1	7	noChange	8	1.2503395233	1	0	noChange	-191.443703514	-191.443703514	943	170	blue	blue
2017-04-24 16:08:10.564000	1	8	noChange	8	0.962341241038	1	0	noChange	37.9311105419	191.443703514	988	178	black	black
2017-04-24 16:08:14.098000	1	9	change	8	1.08448711043	1	0	change	114.687407028	-114.687407028	-935	114	black	blue
2017-04-24 16:08:17.792000	1	10	change	8	1.24317504787	0	0	noChange	37.9311105419	-191.443703514	938	168	blue	white
2017-04-24 16:08:21.469000	1	11	noChange	8	1.22264599913	1	0	noChange	37.9311105419	-37.9311105419	945	165	white	white
2017-04-24 16:08:24.985000	1	12	noChange	8	1.07739899695	1	0	noChange	114.687407028	114.687407028	972	176	green	green
2017-04-24 16:08:28.893000	1	13	change	8	1.47993979722	1	0	change	191.443703514	114.687407028	-955	96	green	yellow
2017-04-24 16:08:32.430000	1	14	change	8	1.10657295769	1	0	change	-114.687407028	-191.443703514	-948	84	black	red
2017-04-24 16:08:35.766000	1	15	change	8	0.901286986281	1	0	change	-191.443703514	-114.687407028	-923	146	magenta	blue
2017-04-24 16:08:39.320000	1	16	change	8	1.11239617238	1	0	change	37.9311105419	37.9311105419	-937	127	magenta	green
2017-04-24 16:08:42.740000	1	17	change	8	1.00831975788	1	0	change	191.443703514	191.443703514	-990	133	black	white
2017-04-24 16:08:46.080000	1	18	noChange	8	0.900552105127	1	0	noChange	191.443703514	114.687407028	954	144	magenta	magenta
2017-04-24 16:08:49.838000	1	19	noChange	8	1.32317568833	0	0	change	-37.9311105419	37.9311105419	-934	87	black	black
2017-04-24 16:08:53.153000	1	20	change	8	0.880259942655	1	0	change	114.687407028	37.9311105419	-930	89	green	black
2017-04-24 16:08:56.532000	1	21	noChange	8	0.947039701646	1	0	noChange	37.9311105419	-114.687407028	954	130	green	green
2017-04-24 16:09:00.056000	1	22	noChange	8	1.08935415852	1	0	noChange	191.443703514	-191.443703514	965	127	red	red
2017-04-24 16:09:03.587000	1	23	change	8	1.07969108716	1	0	change	-191.443703514	37.9311105419	-933	71	yellow	green
2017-04-24 16:09:07.165000	1	24	noChange	8	1.13776394139	1	0	noChange	-37.9311105419	-191.443703514	956	130	black	black
2017-04-24 16:09:10.983000	1	25	noChange	8	1.4063026528	1	0	noChange	191.443703514	37.9311105419	986	124	blue	blue
2017-04-24 16:09:14.320000	1	26	change	8	0.908802069819	0	0	noChange	37.9311105419	-37.9311105419	975	129	black	white
2017-04-24 16:09:17.990000	1	27	change	8	1.23732186317	1	0	change	114.687407028	-191.443703514	-932	61	yellow	blue
2017-04-24 16:09:21.419000	1	28	noChange	8	1.01427681126	1	0	noChange	114.687407028	-37.9311105419	964	121	magenta	magenta
2017-04-24 16:09:25.047000	1	29	noChange	8	1.2418276289	1	0	noChange	-114.687407028	-191.443703514	1021	131	yellow	yellow
2017-04-24 16:09:28.668000	1	30	noChange	8	1.2283624713	1	0	noChange	191.443703514	-37.9311105419	975	121	blue	blue
2017-04-24 16:09:32.191000	1	31	noChange	8	1.1085152609	1	0	noChange	114.687407028	-114.687407028	945	115	yellow	yellow
2017-04-24 16:09:35.646000	1	32	noChange	8	1.04810761944	1	0	noChange	-114.687407028	191.443703514	1006	130	yellow	yellow
2017-04-24 16:09:39.241000	1	33	change	8	1.18162526152	1	0	change	-114.687407028	191.443703514	-938	87	white	green
2017-04-24 16:09:42.811000	1	34	noChange	8	1.14310763587	1	0	noChange	-191.443703514	114.687407028	992	129	black	black
2017-04-24 16:09:46.500000	1	35	change	8	1.27630669259	1	0	change	-114.687407028	114.687407028	-910	182	yellow	red
2017-04-24 16:09:50.309000	1	36	noChange	8	1.35724707772	1	0	noChange	37.9311105419	114.687407028	945	111	yellow	yellow
2017-04-24 16:09:54.067000	1	37	change	8	1.32203888055	1	0	change	191.443703514	-191.443703514	-931	119	magenta	green
2017-04-24 16:09:57.774000	1	38	noChange	8	1.2995999619	1	0	noChange	37.9311105419	-191.443703514	934	102	blue	blue
2017-04-24 16:10:01.182000	1	39	change	8	0.971941087985	1	0	change	37.9311105419	114.687407028	-972	125	white	green
2017-04-24 16:10:04.652000	1	40	change	8	1.06780900316	0	0	noChange	114.687407028	114.687407028	930	97	green	magenta
2017-04-24 16:10:08.329000	1	41	change	8	1.25624648981	1	0	change	-191.443703514	-191.443703514	-955	64	red	blue
2017-04-24 16:10:11.783000	1	42	change	8	1.02805480653	1	0	change	-191.443703514	-37.9311105419	-900	130	black	red
2017-04-24 16:10:15.399000	1	43	change	8	1.18787175133	1	0	change	-37.9311105419	-37.9311105419	-942	147	red	black
2017-04-24 16:10:18.974000	1	44	change	8	1.14068088586	1	0	change	191.443703514	-37.9311105419	-975	128	red	white
2017-04-24 16:10:22.550000	1	45	noChange	8	1.15120487665	1	0	noChange	37.9311105419	37.9311105419	912	109	yellow	yellow
2017-04-24 16:10:26.589000	1	46	noChange	8	1.60383460165	1	0	noChange	-191.443703514	37.9311105419	927	114	white	white
2017-04-24 16:10:31.151000	1	47	change	8	2.13956542659	1	0	change	114.687407028	-37.9311105419	-923	94	magenta	blue
2017-04-24 16:10:35.115000	1	48	change	8	1.56104070667	0	0	noChange	-114.687407028	37.9311105419	972	114	blue	black
2017-04-24 16:10:39.641000	1	49	change	8	2.07883345212	1	0	change	-37.9311105419	191.443703514	-901	84	blue	black
2017-04-24 16:10:43.360000	1	50	noChange	8	1.24463865196	1	0	noChange	-37.9311105419	-114.687407028	905	96	red	red
2017-04-24 16:10:48.041000	1	51	noChange	8	NA	0	1	NA	191.443703514	191.443703514	NA	NA	yellow	yellow
2017-04-24 16:10:51.475000	1	52	noChange	8	1.0491947509	1	0	noChange	-37.9311105419	191.443703514	961	113	black	black
2017-04-24 16:10:54.908000	1	53	noChange	8	0.98459048645	1	0	noChange	114.687407028	37.9311105419	1006	120	magenta	magenta
2017-04-24 16:10:58.307000	1	54	noChange	8	0.950044913966	1	0	noChange	-37.9311105419	-37.9311105419	1003	115	red	red
2017-04-24 16:11:02.583000	1	55	noChange	8	1.90269557692	1	0	noChange	-114.687407028	-114.687407028	990	106	black	black
2017-04-24 16:11:06.072000	1	56	noChange	8	1.04917340239	1	0	noChange	114.687407028	191.443703514	929	96	green	green
2017-04-24 16:11:09.639000	1	57	noChange	8	1.11661044894	1	0	noChange	-114.687407028	114.687407028	988	102	magenta	magenta
2017-04-24 16:11:13.257000	1	58	change	8	1.18642169533	1	0	change	-37.9311105419	37.9311105419	-929	80	magenta	red
2017-04-24 16:11:16.800000	1	59	change	8	1.10507117262	1	0	change	114.687407028	191.443703514	-995	97	white	red
2017-04-24 16:11:20.320000	1	60	noChange	8	1.1193873965	1	0	noChange	191.443703514	-114.687407028	973	99	yellow	yellow
2017-04-24 16:11:23.846000	1	61	change	8	1.10891102929	1	0	change	-37.9311105419	114.687407028	-955	133	black	red
2017-04-24 16:11:28.467000	1	62	change	8	NA	0	1	NA	-114.687407028	-114.687407028	NA	NA	red	magenta
2017-04-24 16:11:32.546000	1	63	change	8	1.68207645392	1	0	change	37.9311105419	-114.687407028	-962	79	green	blue
2017-04-24 16:11:36.331000	1	64	noChange	8	1.36221512065	1	0	noChange	-191.443703514	191.443703514	950	90	blue	blue
2017-04-24 16:11:40.721000	1	65	noChange	8	1.94415313774	1	0	noChange	114.687407028	-191.443703514	987	95	blue	blue
2017-04-24 16:11:44.286000	1	66	change	8	1.14664040253	1	0	change	-114.687407028	-37.9311105419	-985	89	yellow	red
2017-04-24 16:11:47.933000	1	67	noChange	8	1.21211708176	1	0	noChange	-114.687407028	37.9311105419	925	335	green	green
2017-04-24 16:11:51.893000	1	68	change	8	1.51588657048	1	0	change	-191.443703514	191.443703514	-907	256	green	white
2017-04-24 16:11:55.813000	1	69	change	8	1.52882294209	1	0	change	-37.9311105419	-191.443703514	-922	278	magenta	white
2017-04-24 16:11:59.868000	1	70	change	8	1.61252836888	0	0	noChange	191.443703514	37.9311105419	920	328	yellow	red
2017-04-24 16:12:03.454000	1	71	change	8	1.18415382746	1	0	change	191.443703514	-114.687407028	-951	297	black	red
2017-04-24 16:12:07.586000	1	72	change	8	1.68541092584	1	0	change	-37.9311105419	-114.687407028	-927	294	green	yellow
