datetime	block	trial	trial_type	setSize	RT	accuracy	timeout	clickedObject	Targ_X	Targ_Y	Click_X	Click_Y	target_start_color	target_end_color
2017-04-27 16:20:59.176000	1	1	change	8	0.818193686755	1	0	change	-191.443703514	114.687407028	-934	243	black	green
2017-04-27 16:21:02.478000	1	2	change	8	0.945883187561	0	0	noChange	114.687407028	114.687407028	917	265	green	yellow
2017-04-27 16:21:05.529000	1	3	noChange	8	0.695142148185	1	0	noChange	-114.687407028	-114.687407028	948	287	magenta	magenta
2017-04-27 16:21:08.732000	1	4	noChange	8	0.810994725278	1	0	noChange	191.443703514	-191.443703514	958	292	yellow	yellow
2017-04-27 16:21:12.044000	1	5	change	8	0.936829369628	0	0	noChange	191.443703514	-37.9311105419	915	280	white	red
2017-04-27 16:21:15.173000	1	6	change	8	0.720944277123	1	0	change	37.9311105419	-37.9311105419	-990	255	yellow	green
2017-04-27 16:21:18.427000	1	7	change	8	0.912377944041	0	0	noChange	-37.9311105419	-191.443703514	899	277	yellow	red
2017-04-27 16:21:21.667000	1	8	noChange	8	0.810242601102	1	0	noChange	37.9311105419	-114.687407028	920	278	red	red
2017-04-27 16:21:24.878000	1	9	change	8	0.825967826164	1	0	change	-114.687407028	37.9311105419	-973	251	black	blue
2017-04-27 16:21:27.984000	1	10	change	8	0.747013262347	1	0	change	37.9311105419	191.443703514	-970	250	white	black
2017-04-27 16:21:31.618000	1	11	change	8	1.24954757596	1	0	change	114.687407028	191.443703514	-938	254	red	black
2017-04-27 16:21:34.887000	1	12	change	8	0.884136748656	0	0	noChange	-37.9311105419	114.687407028	901	275	yellow	white
2017-04-27 16:21:38.899000	1	13	noChange	8	1.61218761393	0	0	change	-37.9311105419	114.687407028	-931	254	green	green
2017-04-27 16:21:42.149000	1	14	change	8	0.852423547727	1	0	change	-114.687407028	191.443703514	-933	244	red	black
2017-04-27 16:21:45.471000	1	15	noChange	8	0.902952580049	1	0	noChange	-114.687407028	-191.443703514	909	269	white	white
2017-04-27 16:21:48.821000	1	16	change	8	0.958407368846	1	0	change	-37.9311105419	37.9311105419	-966	247	white	black
2017-04-27 16:21:52.418000	1	17	change	8	1.15520566819	1	0	change	114.687407028	-37.9311105419	-982	255	red	white
2017-04-27 16:21:56.012000	1	18	change	8	1.21450113476	1	0	change	191.443703514	114.687407028	-946	247	magenta	black
2017-04-27 16:21:59.262000	1	19	noChange	8	0.896961451173	0	0	change	-114.687407028	191.443703514	-984	255	black	black
2017-04-27 16:22:02.564000	1	20	change	8	0.905478272151	1	0	change	114.687407028	37.9311105419	-925	239	yellow	red
2017-04-27 16:22:06.184000	1	21	noChange	8	1.21814515997	1	0	noChange	-191.443703514	-37.9311105419	980	301	white	white
2017-04-27 16:22:09.655000	1	22	noChange	8	1.0611536074	0	0	change	37.9311105419	-37.9311105419	-990	255	green	green
2017-04-27 16:22:12.873000	1	23	change	8	0.791064255709	1	0	change	-191.443703514	191.443703514	-960	240	blue	magenta
2017-04-27 16:22:16.109000	1	24	change	8	0.824766562333	1	0	change	-37.9311105419	-114.687407028	-994	236	yellow	green
2017-04-27 16:22:19.701000	1	25	noChange	8	1.14583860203	0	0	change	-37.9311105419	191.443703514	-981	226	black	black
2017-04-27 16:22:22.389000	1	26	change	8	0.287093023638	1	0	change	37.9311105419	114.687407028	-920	220	magenta	red
2017-04-27 16:22:25.612000	1	27	change	8	0.810603883457	1	0	change	-114.687407028	114.687407028	-951	233	green	white
2017-04-27 16:22:29.132000	1	28	noChange	8	1.13042128807	0	0	change	114.687407028	191.443703514	-987	233	magenta	magenta
2017-04-27 16:22:32.313000	1	29	change	8	0.777246026715	1	0	change	-191.443703514	-191.443703514	-961	206	red	yellow
2017-04-27 16:22:35.624000	1	30	noChange	8	0.888634713979	0	0	change	-191.443703514	191.443703514	-944	188	white	white
2017-04-27 16:22:38.807000	1	31	noChange	8	0.802708632349	0	0	change	37.9311105419	-191.443703514	-918	148	yellow	yellow
2017-04-27 16:22:42.032000	1	32	noChange	8	0.827012671158	0	0	change	191.443703514	37.9311105419	-959	171	magenta	magenta
2017-04-27 16:22:45.592000	1	33	change	8	1.13882233448	1	0	change	191.443703514	-114.687407028	-977	152	white	red
2017-04-27 16:22:48.858000	1	34	noChange	8	0.898871731626	0	0	change	-37.9311105419	37.9311105419	-963	143	green	green
2017-04-27 16:22:52.233000	1	35	change	8	0.966993983007	1	0	change	-114.687407028	-191.443703514	-973	144	green	yellow
2017-04-27 16:22:55.752000	1	36	noChange	8	1.13651423288	1	0	noChange	37.9311105419	37.9311105419	1011	247	black	black
2017-04-27 16:22:59.546000	1	37	change	8	1.38277947653	1	0	change	-191.443703514	-37.9311105419	-955	135	blue	green
2017-04-27 16:23:03.037000	1	38	change	8	1.07668833813	1	0	change	114.687407028	-191.443703514	-958	130	green	white
2017-04-27 16:23:06.434000	1	39	noChange	8	1.01218753182	0	0	change	-191.443703514	-114.687407028	-970	196	white	white
2017-04-27 16:23:10.474000	1	40	noChange	8	1.64677957835	0	0	change	114.687407028	-37.9311105419	-941	178	green	green
2017-04-27 16:23:14.189000	1	41	noChange	8	1.31145823412	0	0	change	191.443703514	-114.687407028	-942	169	green	green
2017-04-27 16:23:17.794000	1	42	change	8	1.17061559229	0	0	noChange	191.443703514	-191.443703514	941	233	magenta	white
2017-04-27 16:23:21.367000	1	43	noChange	8	1.16639105202	1	0	noChange	-37.9311105419	-191.443703514	994	242	yellow	yellow
2017-04-27 16:23:24.918000	1	44	change	8	1.14277057585	1	0	change	37.9311105419	37.9311105419	-958	170	magenta	black
2017-04-27 16:23:28.153000	1	45	noChange	8	0.857504901945	1	0	noChange	114.687407028	-191.443703514	986	232	blue	blue
2017-04-27 16:23:32.081000	1	46	change	8	1.5162765912	1	0	change	-37.9311105419	191.443703514	-948	156	red	yellow
2017-04-27 16:23:35.800000	1	47	change	8	1.31870276644	0	0	noChange	-37.9311105419	-37.9311105419	993	247	magenta	blue
2017-04-27 16:23:39.650000	1	48	noChange	8	1.45245524204	1	0	noChange	191.443703514	191.443703514	1015	246	red	red
2017-04-27 16:23:43.085000	1	49	change	8	1.01940496796	0	0	noChange	37.9311105419	-191.443703514	959	230	magenta	white
2017-04-27 16:23:46.359000	1	50	change	8	0.90460626792	0	0	noChange	37.9311105419	-114.687407028	965	236	yellow	red
2017-04-27 16:23:49.798000	1	51	noChange	8	1.06361648564	1	0	noChange	-114.687407028	114.687407028	979	231	magenta	magenta
2017-04-27 16:23:53.224000	1	52	noChange	8	1.04654466271	1	0	noChange	-191.443703514	114.687407028	929	215	yellow	yellow
2017-04-27 16:23:56.461000	1	53	noChange	8	0.845355961652	1	0	noChange	37.9311105419	114.687407028	984	230	black	black
2017-04-27 16:23:59.610000	1	54	noChange	8	0.784288979903	1	0	noChange	114.687407028	-114.687407028	955	221	red	red
2017-04-27 16:24:02.855000	1	55	noChange	8	0.829630736589	1	0	noChange	37.9311105419	191.443703514	972	226	yellow	yellow
2017-04-27 16:24:06.255000	1	56	noChange	8	0.982952399408	1	0	noChange	-37.9311105419	-114.687407028	959	215	green	green
2017-04-27 16:24:09.465000	1	57	noChange	8	0.805351741217	1	0	noChange	-114.687407028	-37.9311105419	913	201	magenta	magenta
2017-04-27 16:24:12.770000	1	58	noChange	8	0.923922557485	1	0	noChange	191.443703514	-37.9311105419	885	195	green	green
2017-04-27 16:24:15.996000	1	59	noChange	8	0.811338764611	0	0	change	114.687407028	37.9311105419	-941	137	red	red
2017-04-27 16:24:19.495000	1	60	change	8	1.13575020281	1	0	change	191.443703514	37.9311105419	-979	142	blue	black
2017-04-27 16:24:23.150000	1	61	change	8	1.25520451866	1	0	change	191.443703514	191.443703514	-971	141	red	black
2017-04-27 16:24:26.385000	1	62	change	8	0.87629610045	1	0	change	-191.443703514	37.9311105419	-980	131	magenta	blue
2017-04-27 16:24:29.467000	1	63	change	8	0.71136536813	1	0	change	-191.443703514	-114.687407028	-958	127	blue	yellow
2017-04-27 16:24:32.701000	1	64	noChange	8	0.817610297861	1	0	noChange	114.687407028	114.687407028	953	218	white	white
2017-04-27 16:24:35.936000	1	65	noChange	8	0.851392250822	1	0	noChange	-114.687407028	37.9311105419	951	211	magenta	magenta
2017-04-27 16:24:39.191000	1	66	change	8	0.848839873091	1	0	change	114.687407028	-114.687407028	-932	120	blue	magenta
2017-04-27 16:24:42.431000	1	67	change	8	0.858714787287	1	0	change	-114.687407028	-37.9311105419	-937	116	white	blue
2017-04-27 16:24:45.749000	1	68	noChange	8	0.932737025858	1	0	noChange	-191.443703514	-191.443703514	944	206	magenta	magenta
2017-04-27 16:24:49.083000	1	69	change	8	0.958411474328	1	0	change	-114.687407028	-114.687407028	-970	120	white	red
2017-04-27 16:24:52.437000	1	70	noChange	8	0.918909354257	0	0	change	191.443703514	114.687407028	-959	122	yellow	yellow
2017-04-27 16:24:55.831000	1	71	noChange	8	1.01593337296	0	0	change	-37.9311105419	-37.9311105419	-967	127	blue	blue
2017-04-27 16:24:59.186000	1	72	noChange	8	0.951453094055	1	0	noChange	-191.443703514	37.9311105419	956	222	green	green
