datetime	block	trial	trial_type	setSize	RT	accuracy	timeout	clickedObject	Targ_X	Targ_Y	Click_X	Click_Y	target_start_color	target_end_color
2017-04-21 10:13:45.414000	1	1	noChange	12	1.05261822535	1	0	noChange	191.443703514	191.443703514	887	210	magenta	magenta
2017-04-21 10:13:48.656000	1	2	change	12	0.797333247939	0	0	noChange	-114.687407028	-191.443703514	929	217	green	yellow
2017-04-21 10:13:51.804000	1	3	change	12	0.73602168019	0	0	noChange	-191.443703514	114.687407028	914	215	green	white
2017-04-21 10:13:55.300000	1	4	change	12	1.06137232877	1	0	change	37.9311105419	-114.687407028	-940	289	green	magenta
2017-04-21 10:13:59.153000	1	5	change	12	1.40284558653	1	0	change	-114.687407028	191.443703514	-923	287	magenta	blue
2017-04-21 10:14:02.576000	1	6	noChange	12	0.986158392493	1	0	noChange	114.687407028	114.687407028	893	170	red	red
2017-04-21 10:14:05.768000	1	7	noChange	12	0.781333392452	1	0	noChange	191.443703514	114.687407028	867	154	yellow	yellow
2017-04-21 10:14:09.107000	1	8	noChange	12	0.893219480313	1	0	noChange	114.687407028	-191.443703514	876	159	magenta	magenta
2017-04-21 10:14:12.537000	1	9	change	12	0.988432004309	0	0	noChange	-37.9311105419	114.687407028	901	168	black	green
2017-04-21 10:14:15.905000	1	10	noChange	12	0.928768784599	1	0	noChange	37.9311105419	-191.443703514	876	152	magenta	magenta
2017-04-21 10:14:19.026000	1	11	noChange	12	0.689000858865	1	0	noChange	-191.443703514	191.443703514	888	157	yellow	yellow
2017-04-21 10:14:22.208000	1	12	noChange	12	0.727662112874	1	0	noChange	-37.9311105419	-191.443703514	866	140	red	red
2017-04-21 10:14:25.469000	1	13	change	12	0.814659992807	0	0	noChange	114.687407028	-114.687407028	918	154	black	yellow
2017-04-21 10:14:28.685000	1	14	change	12	0.743938677347	0	0	noChange	191.443703514	-191.443703514	901	149	red	yellow
2017-04-21 10:14:31.860000	1	15	noChange	12	0.761103666517	1	0	noChange	114.687407028	37.9311105419	908	145	blue	blue
2017-04-21 10:14:34.999000	1	16	noChange	12	0.701307018884	1	0	noChange	-114.687407028	114.687407028	906	148	magenta	magenta
2017-04-21 10:14:38.097000	1	17	noChange	12	0.654376517999	1	0	noChange	37.9311105419	-114.687407028	896	142	blue	blue
2017-04-21 10:14:41.171000	1	18	noChange	12	0.63404743958	1	0	noChange	191.443703514	37.9311105419	926	163	red	red
2017-04-21 10:14:44.787000	1	19	noChange	12	1.1613899002	0	0	change	-114.687407028	-37.9311105419	-888	235	yellow	yellow
2017-04-21 10:14:48.233000	1	20	change	12	1.01976786005	0	0	noChange	-114.687407028	-37.9311105419	887	142	green	magenta
2017-04-21 10:14:51.775000	1	21	change	12	1.04762555773	0	0	noChange	191.443703514	114.687407028	885	140	white	black
2017-04-21 10:14:55.576000	1	22	change	12	1.37007815181	1	0	change	37.9311105419	37.9311105419	-873	217	black	yellow
2017-04-21 10:14:59.239000	1	23	change	12	1.26130155039	1	0	change	-37.9311105419	191.443703514	-921	240	white	blue
2017-04-21 10:15:03.458000	1	24	change	12	1.82497828204	1	0	change	191.443703514	-114.687407028	-885	218	yellow	white
2017-04-21 10:15:06.921000	1	25	noChange	12	1.01729513271	1	0	noChange	191.443703514	-114.687407028	911	153	white	white
2017-04-21 10:15:10.307000	1	26	change	12	0.910791322012	0	0	noChange	-37.9311105419	37.9311105419	890	140	red	black
2017-04-21 10:15:13.621000	1	27	change	12	0.849873879821	1	0	change	37.9311105419	-191.443703514	-889	215	red	green
2017-04-21 10:15:17.537000	1	28	noChange	12	1.47032275599	0	0	change	-191.443703514	-37.9311105419	-895	201	magenta	magenta
2017-04-21 10:15:21.192000	1	29	change	12	1.22120379083	0	0	noChange	-114.687407028	37.9311105419	919	149	black	white
2017-04-21 10:15:24.674000	1	30	noChange	12	1.07243658273	1	0	noChange	-114.687407028	191.443703514	904	148	black	black
2017-04-21 10:15:28.580000	1	31	change	12	1.43693293133	0	0	noChange	-191.443703514	-191.443703514	920	153	black	blue
2017-04-21 10:15:32.338000	1	32	change	12	1.32819943739	1	0	change	114.687407028	37.9311105419	-971	250	black	magenta
2017-04-21 10:15:36.125000	1	33	noChange	12	1.3721785126	0	0	change	-37.9311105419	-37.9311105419	-934	235	green	green
2017-04-21 10:15:40.319000	1	34	change	12	1.74561494261	1	0	change	-191.443703514	-37.9311105419	-907	203	blue	green
2017-04-21 10:15:43.997000	1	35	change	12	1.20081969905	0	0	noChange	-37.9311105419	-191.443703514	879	122	white	red
2017-04-21 10:15:48.365000	1	36	change	12	1.88811226995	0	0	noChange	-37.9311105419	-37.9311105419	940	148	blue	green
2017-04-21 10:15:52.385000	1	37	noChange	12	1.58325943479	0	0	change	-191.443703514	-114.687407028	-931	215	blue	blue
2017-04-21 10:15:56.352000	1	38	change	12	1.5024862754	1	0	change	191.443703514	37.9311105419	-889	192	black	white
2017-04-21 10:16:00.148000	1	39	change	12	1.34432450985	1	0	change	-114.687407028	114.687407028	-945	226	yellow	magenta
2017-04-21 10:16:04.374000	1	40	change	12	1.77255794056	0	0	noChange	-191.443703514	191.443703514	937	150	green	white
2017-04-21 10:16:08.317000	1	41	change	12	1.51738627425	1	0	change	-191.443703514	-114.687407028	-902	195	black	white
2017-04-21 10:16:12.330000	1	42	noChange	12	1.62224789512	1	0	noChange	-114.687407028	-114.687407028	915	144	magenta	magenta
2017-04-21 10:16:15.941000	1	43	change	12	1.19276352631	1	0	change	114.687407028	114.687407028	-887	189	magenta	black
2017-04-21 10:16:20.013000	1	44	noChange	12	1.59671718043	1	0	noChange	-191.443703514	114.687407028	898	130	magenta	magenta
2017-04-21 10:16:24.208000	1	45	noChange	12	1.74502991249	0	0	change	-114.687407028	-191.443703514	-863	180	black	black
2017-04-21 10:16:28.260000	1	46	noChange	12	1.59581602876	1	0	noChange	37.9311105419	37.9311105419	913	124	black	black
2017-04-21 10:16:32.047000	1	47	noChange	12	1.38127542315	0	0	change	37.9311105419	-37.9311105419	-917	198	magenta	magenta
2017-04-21 10:16:35.831000	1	48	change	12	1.37965704508	1	0	change	191.443703514	191.443703514	-928	202	black	red
2017-04-21 10:16:39.741000	1	49	noChange	12	1.44877353053	1	0	noChange	-37.9311105419	114.687407028	937	143	magenta	magenta
2017-04-21 10:16:43.692000	1	50	noChange	12	1.52002281002	1	0	noChange	-37.9311105419	-114.687407028	934	148	magenta	magenta
2017-04-21 10:16:47.598000	1	51	change	12	1.4415384527	0	0	noChange	114.687407028	-191.443703514	941	149	yellow	blue
2017-04-21 10:16:51.199000	1	52	noChange	12	1.11685822811	1	0	noChange	191.443703514	-37.9311105419	943	144	white	white
2017-04-21 10:16:54.706000	1	53	change	12	1.02415538072	0	0	noChange	37.9311105419	-37.9311105419	924	130	blue	white
2017-04-21 10:16:58.499000	1	54	change	12	1.33174287249	1	0	change	37.9311105419	191.443703514	-890	183	black	blue
2017-04-21 10:17:02.503000	1	55	noChange	12	1.52833229054	1	0	noChange	-37.9311105419	37.9311105419	934	139	green	green
2017-04-21 10:17:06.204000	1	56	change	12	1.29572718629	0	0	noChange	37.9311105419	114.687407028	919	127	magenta	green
2017-04-21 10:17:09.812000	1	57	noChange	12	1.21351957408	1	0	noChange	-37.9311105419	191.443703514	931	129	blue	blue
2017-04-21 10:17:14.066000	1	58	change	12	1.78424951104	1	0	change	-114.687407028	-114.687407028	-921	194	blue	white
2017-04-21 10:17:18.538000	1	59	noChange	12	2.03170699064	1	0	noChange	37.9311105419	191.443703514	940	138	red	red
2017-04-21 10:17:22.568000	1	60	noChange	12	1.60737211857	1	0	noChange	-191.443703514	37.9311105419	920	123	black	black
2017-04-21 10:17:26.135000	1	61	noChange	12	1.1857916094	1	0	noChange	114.687407028	-37.9311105419	909	121	blue	blue
2017-04-21 10:17:29.802000	1	62	noChange	12	1.21090028131	1	0	noChange	191.443703514	-191.443703514	934	133	green	green
2017-04-21 10:17:33.278000	1	63	noChange	12	1.0668165986	1	0	noChange	-191.443703514	-191.443703514	895	125	blue	blue
2017-04-21 10:17:36.654000	1	64	noChange	12	0.935186051896	1	0	noChange	114.687407028	-114.687407028	934	126	magenta	magenta
2017-04-21 10:17:40.292000	1	65	change	12	1.22755865492	0	0	noChange	114.687407028	-37.9311105419	929	119	white	red
2017-04-21 10:17:43.828000	1	66	noChange	12	1.15595219914	1	0	noChange	37.9311105419	114.687407028	968	142	blue	blue
2017-04-21 10:17:47.706000	1	67	noChange	12	1.46481444076	0	0	change	-114.687407028	37.9311105419	-923	179	white	white
2017-04-21 10:17:51.267000	1	68	change	12	1.1531974257	1	0	change	114.687407028	191.443703514	-858	161	red	white
2017-04-21 10:17:55.239000	1	69	change	12	1.53781675789	0	0	noChange	-191.443703514	37.9311105419	934	121	black	green
2017-04-21 10:17:58.676000	1	70	change	12	1.03047001115	0	0	noChange	-37.9311105419	-114.687407028	952	124	black	white
2017-04-21 10:18:02.358000	1	71	change	12	1.2280213419	0	0	noChange	191.443703514	-37.9311105419	972	128	green	red
2017-04-21 10:18:05.913000	1	72	noChange	12	1.12018735744	1	0	noChange	114.687407028	191.443703514	952	122	yellow	yellow
