datetime	block	trial	trial_type	setSize	RT	accuracy	timeout	clickedObject	Targ_X	Targ_Y	Click_X	Click_Y	target_start_color	target_end_color
2017-04-24 16:26:26.431000	1	1	change	12	1.05611495019	1	0	change	191.443703514	114.687407028	-903	192	black	red
2017-04-24 16:26:29.895000	1	2	noChange	12	1.00819207741	1	0	noChange	191.443703514	191.443703514	963	214	green	green
2017-04-24 16:26:33.563000	1	3	change	12	1.16457766093	1	0	change	-114.687407028	-114.687407028	-912	166	blue	black
2017-04-24 16:26:37.090000	1	4	change	12	0.974566953831	1	0	change	-114.687407028	37.9311105419	-935	168	magenta	white
2017-04-24 16:26:40.647000	1	5	change	12	1.1052969741	0	0	noChange	-191.443703514	191.443703514	950	194	black	green
2017-04-24 16:26:44.857000	1	6	noChange	12	1.72334926807	1	0	noChange	191.443703514	-191.443703514	903	192	green	green
2017-04-24 16:26:48.241000	1	7	noChange	12	0.91277576518	1	0	noChange	-114.687407028	37.9311105419	910	201	black	black
2017-04-24 16:26:51.744000	1	8	noChange	12	1.07157414007	1	0	noChange	191.443703514	-37.9311105419	867	189	red	red
2017-04-24 16:26:55.952000	1	9	noChange	12	1.7218618522	1	0	noChange	37.9311105419	191.443703514	904	136	green	green
2017-04-24 16:26:59.452000	1	10	noChange	12	1.07769828654	1	0	noChange	-191.443703514	-37.9311105419	856	148	yellow	yellow
2017-04-24 16:27:03.144000	1	11	noChange	12	1.27543140398	1	0	noChange	191.443703514	-114.687407028	984	572	red	red
2017-04-24 16:27:06.569000	1	12	noChange	12	0.987231542577	1	0	noChange	37.9311105419	-37.9311105419	875	93	black	black
2017-04-24 16:27:10.034000	1	13	change	12	0.979234064985	0	0	noChange	37.9311105419	-114.687407028	904	139	white	green
2017-04-24 16:27:14.214000	1	14	change	12	1.7249573851	0	0	noChange	-37.9311105419	37.9311105419	889	236	white	black
2017-04-24 16:27:18.581000	1	15	noChange	12	1.89928843798	1	0	noChange	191.443703514	114.687407028	829	247	red	red
2017-04-24 16:27:22.144000	1	16	change	12	1.07454897182	1	0	change	114.687407028	37.9311105419	-900	355	white	red
2017-04-24 16:27:25.595000	1	17	change	12	1.005019772	1	0	change	114.687407028	-37.9311105419	-933	360	red	green
2017-04-24 16:27:29.456000	1	18	change	12	1.46239132791	0	0	noChange	-114.687407028	-37.9311105419	914	224	white	yellow
2017-04-24 16:27:33.004000	1	19	change	12	1.10470783753	1	0	change	-37.9311105419	191.443703514	-959	366	black	white
2017-04-24 16:27:36.868000	1	20	change	12	1.38404889136	1	0	change	-114.687407028	-191.443703514	-977	369	magenta	red
2017-04-24 16:27:40.411000	1	21	noChange	12	1.06571767098	1	0	noChange	191.443703514	37.9311105419	955	205	red	red
2017-04-24 16:27:43.990000	1	22	change	12	1.09382256438	1	0	change	-37.9311105419	-37.9311105419	-949	362	yellow	black
2017-04-24 16:27:47.436000	1	23	noChange	12	1.03439243803	1	0	noChange	114.687407028	-114.687407028	934	208	yellow	yellow
2017-04-24 16:27:50.760000	1	24	change	12	0.86808719057	0	0	noChange	114.687407028	-191.443703514	922	189	blue	black
2017-04-24 16:27:53.960000	1	25	noChange	12	0.772739029333	1	0	noChange	-191.443703514	191.443703514	942	192	white	white
2017-04-24 16:27:57.490000	1	26	noChange	12	1.09994055263	1	0	noChange	-37.9311105419	191.443703514	922	194	yellow	yellow
2017-04-24 16:28:01.576000	1	27	change	12	1.59649441162	0	0	noChange	114.687407028	191.443703514	948	201	magenta	yellow
2017-04-24 16:28:05.062000	1	28	change	12	0.994564753293	0	0	noChange	-191.443703514	-37.9311105419	928	197	white	red
2017-04-24 16:28:08.797000	1	29	change	12	1.32366177731	0	0	noChange	-114.687407028	191.443703514	989	213	green	black
2017-04-24 16:28:12.219000	1	30	noChange	12	0.967811794884	1	0	noChange	37.9311105419	-191.443703514	924	139	blue	blue
2017-04-24 16:28:15.637000	1	31	change	12	0.9906752203	1	0	change	37.9311105419	-191.443703514	-890	188	green	yellow
2017-04-24 16:28:19.436000	1	32	noChange	12	1.32684516752	1	0	noChange	114.687407028	-191.443703514	938	151	yellow	yellow
2017-04-24 16:28:23.117000	1	33	change	12	1.23165465677	0	0	noChange	191.443703514	37.9311105419	969	147	red	green
2017-04-24 16:28:26.550000	1	34	noChange	12	1.00576327466	1	0	noChange	114.687407028	114.687407028	1004	156	blue	blue
2017-04-24 16:28:30.134000	1	35	noChange	12	1.13539138374	1	0	noChange	-37.9311105419	-37.9311105419	982	154	red	red
2017-04-24 16:28:33.601000	1	36	noChange	12	1.02387255272	1	0	noChange	-37.9311105419	114.687407028	993	153	magenta	magenta
2017-04-24 16:28:37.169000	1	37	noChange	12	1.09417358303	1	0	noChange	114.687407028	37.9311105419	976	149	white	white
2017-04-24 16:28:40.622000	1	38	noChange	12	0.996800187867	1	0	noChange	-114.687407028	-191.443703514	991	150	blue	blue
2017-04-24 16:28:44.275000	1	39	change	12	1.18610721547	0	0	noChange	191.443703514	-191.443703514	1053	161	green	black
2017-04-24 16:28:47.977000	1	40	noChange	12	1.25867036598	1	0	noChange	-37.9311105419	-191.443703514	999	154	black	black
2017-04-24 16:28:51.627000	1	41	change	12	1.2122283403	1	0	change	191.443703514	-114.687407028	-900	100	blue	white
2017-04-24 16:28:55.176000	1	42	noChange	12	1.07795857405	1	0	noChange	37.9311105419	-114.687407028	939	127	green	green
2017-04-24 16:28:59.560000	1	43	change	12	1.92332110447	1	0	change	-37.9311105419	-191.443703514	-833	63	blue	yellow
2017-04-24 16:29:03.257000	1	44	change	12	1.21636420217	0	0	noChange	37.9311105419	37.9311105419	986	88	green	blue
2017-04-24 16:29:06.905000	1	45	noChange	12	1.18555872316	1	0	noChange	-114.687407028	-37.9311105419	896	57	yellow	yellow
2017-04-24 16:29:10.480000	1	46	noChange	12	1.09961827235	1	0	noChange	-114.687407028	114.687407028	961	54	red	red
2017-04-24 16:29:13.812000	1	47	noChange	12	0.868202965143	1	0	noChange	37.9311105419	37.9311105419	991	54	green	green
2017-04-24 16:29:17.204000	1	48	change	12	0.977336100975	1	0	change	-191.443703514	37.9311105419	-889	88	black	magenta
2017-04-24 16:29:20.577000	1	49	noChange	12	0.965002003475	1	0	noChange	-114.687407028	-114.687407028	1014	55	yellow	yellow
2017-04-24 16:29:24.708000	1	50	change	12	1.66559869413	0	0	noChange	-37.9311105419	114.687407028	985	55	magenta	black
2017-04-24 16:29:28.343000	1	51	noChange	12	1.17619412029	1	0	noChange	-191.443703514	37.9311105419	996	58	white	white
2017-04-24 16:29:31.881000	1	52	noChange	12	1.06482637098	1	0	noChange	-191.443703514	114.687407028	999	57	yellow	yellow
2017-04-24 16:29:35.108000	1	53	noChange	12	0.792277835984	1	0	noChange	-191.443703514	-114.687407028	971	53	magenta	magenta
2017-04-24 16:29:38.703000	1	54	change	12	1.15154850544	1	0	change	37.9311105419	114.687407028	-928	110	black	magenta
2017-04-24 16:29:41.996000	1	55	noChange	12	0.880547736894	1	0	noChange	-37.9311105419	37.9311105419	973	55	black	black
2017-04-24 16:29:45.363000	1	56	change	12	0.951834493269	1	0	change	-191.443703514	114.687407028	-880	106	magenta	yellow
2017-04-24 16:29:49.152000	1	57	change	12	1.32875462688	1	0	change	114.687407028	-114.687407028	-932	126	red	magenta
2017-04-24 16:29:52.566000	1	58	noChange	12	0.940794032929	1	0	noChange	-191.443703514	-191.443703514	973	61	red	red
2017-04-24 16:29:56.581000	1	59	change	12	1.57390153742	1	0	change	-191.443703514	-191.443703514	-886	118	green	magenta
2017-04-24 16:30:01.258000	1	60	noChange	12	NA	0	1	NA	114.687407028	-37.9311105419	NA	NA	white	white
2017-04-24 16:30:04.870000	1	61	change	12	1.16051487662	1	0	change	-114.687407028	114.687407028	-922	80	magenta	green
2017-04-24 16:30:08.628000	1	62	change	12	1.32907280168	0	0	noChange	37.9311105419	-37.9311105419	896	127	red	blue
2017-04-24 16:30:12.130000	1	63	noChange	12	1.03349046379	1	0	noChange	-37.9311105419	-114.687407028	966	59	blue	blue
2017-04-24 16:30:15.563000	1	64	noChange	12	0.963615582436	1	0	noChange	-114.687407028	191.443703514	994	44	yellow	yellow
2017-04-24 16:30:19.179000	1	65	change	12	1.13129575559	1	0	change	191.443703514	-37.9311105419	-877	47	white	magenta
2017-04-24 16:30:22.683000	1	66	noChange	12	1.00350649159	1	0	noChange	114.687407028	191.443703514	1017	57	magenta	magenta
2017-04-24 16:30:26.282000	1	67	change	12	1.14962631909	0	0	noChange	-37.9311105419	-114.687407028	994	50	white	black
2017-04-24 16:30:29.826000	1	68	change	12	1.08260762109	0	0	noChange	114.687407028	114.687407028	985	44	yellow	blue
2017-04-24 16:30:33.324000	1	69	noChange	12	1.03846589659	1	0	noChange	37.9311105419	114.687407028	983	39	black	black
2017-04-24 16:30:36.867000	1	70	change	12	1.07733659363	1	0	change	37.9311105419	191.443703514	-914	27	green	white
2017-04-24 16:30:40.340000	1	71	change	12	0.995121456559	0	0	noChange	191.443703514	191.443703514	949	129	white	red
2017-04-24 16:30:44.802000	1	72	change	12	2.06950538803	1	0	change	-191.443703514	-114.687407028	-944	103	white	green
