Participant	part_initials	date	time	BlockTarg	BlockNum	Trial	isPractice	AbsPosition	FileName	SearchType	Relevance	StepsDim	EEG_code	Axis	RT	Accuracy
7	DEBUGGING	30-Jul-2015	10:48:00	9	1	1	P	8	CMP300_8.bmp	Non-Target	I	1	32	H	9.999000	2	
7	DEBUGGING	30-Jul-2015	10:48:00	9	1	2	P	3	CMP300_3.bmp	Non-Target	R	2	24	H	9.999000	2	
7	DEBUGGING	30-Jul-2015	10:48:00	9	1	3	P	6	CMP300_6.bmp	Non-Target	R	1	16	H	9.999000	2	
7	DEBUGGING	30-Jul-2015	10:48:00	9	1	4	P	2	CMP300_2.bmp	Non-Target	RI	21	48	H	9.999000	2	
7	DEBUGGING	30-Jul-2015	10:48:00	9	1	5	P	4	CMP300_4.bmp	Non-Target	IR	21	56	H	9.999000	2	
7	DEBUGGING	30-Jul-2015	10:48:00	9	1	6	P	9	CMP300_9.bmp	Target	T	0	8	H	9.999000	2	
7	DEBUGGING	30-Jul-2015	10:48:00	9	1	7	P	8	CMP300_8.bmp	Non-Target	I	1	32	H	9.999000	2	
7	DEBUGGING	30-Jul-2015	10:48:00	9	1	8	P	1	CMP300_1.bmp	Non-Target	RRII	22	64	H	9.999000	2	
7	DEBUGGING	30-Jul-2015	10:48:00	9	1	9	P	7	CMP300_7.bmp	Non-Target	I	2	40	H	9.999000	2	
7	DEBUGGING	30-Jul-2015	10:48:00	9	1	10	P	2	CMP300_2.bmp	Non-Target	RI	21	48	H	9.999000	2	
7	DEBUGGING	30-Jul-2015	10:48:01	9	1	11	P	2	CMP300_2.bmp	Non-Target	RI	21	48	H	9.999000	2	
7	DEBUGGING	30-Jul-2015	10:48:01	9	1	12	P	9	CMP300_9.bmp	Target	T	0	8	H	9.999000	2	
7	DEBUGGING	30-Jul-2015	10:48:01	9	1	13	P	7	CMP300_7.bmp	Non-Target	I	2	40	H	9.999000	2	
7	DEBUGGING	30-Jul-2015	10:48:01	9	1	14	P	9	CMP300_9.bmp	Target	T	0	8	H	9.999000	2	
7	DEBUGGING	30-Jul-2015	10:48:01	9	1	15	P	4	CMP300_4.bmp	Non-Target	IR	21	56	H	9.999000	2	
7	DEBUGGING	30-Jul-2015	10:48:01	9	1	16	P	1	CMP300_1.bmp	Non-Target	RRII	22	64	H	9.999000	2	
7	DEBUGGING	30-Jul-2015	10:48:01	9	1	17	P	9	CMP300_9.bmp	Target	T	0	8	H	9.999000	2	
7	DEBUGGING	30-Jul-2015	10:48:01	9	1	18	P	6	CMP300_6.bmp	Non-Target	R	1	16	H	9.999000	2	
7	DEBUGGING	30-Jul-2015	10:48:01	9	1	19	P	9	CMP300_9.bmp	Target	T	0	8	H	9.999000	2	
7	DEBUGGING	30-Jul-2015	10:48:01	9	1	20	P	6	CMP300_6.bmp	Non-Target	R	1	16	H	9.999000	2	
7	DEBUGGING	30-Jul-2015	10:48:01	9	1	21	P	8	CMP300_8.bmp	Non-Target	I	1	32	H	9.999000	2	
7	DEBUGGING	30-Jul-2015	10:48:01	9	1	22	P	4	CMP300_4.bmp	Non-Target	IR	21	56	H	9.999000	2	
7	DEBUGGING	30-Jul-2015	10:48:01	9	1	23	P	1	CMP300_1.bmp	Non-Target	RRII	22	64	H	9.999000	2	
7	DEBUGGING	30-Jul-2015	10:48:01	9	1	24	P	3	CMP300_3.bmp	Non-Target	R	2	24	H	9.999000	2	
7	DEBUGGING	30-Jul-2015	10:48:01	9	1	25	P	4	CMP300_4.bmp	Non-Target	IR	21	56	H	9.999000	2	
7	DEBUGGING	30-Jul-2015	10:48:01	9	1	26	P	1	CMP300_1.bmp	Non-Target	RRII	22	64	H	9.999000	2	
7	DEBUGGING	30-Jul-2015	10:48:01	9	1	27	P	3	CMP300_3.bmp	Non-Target	R	2	24	H	9.999000	2	
7	DEBUGGING	30-Jul-2015	10:48:01	9	1	28	P	8	CMP300_8.bmp	Non-Target	I	1	32	H	9.999000	2	
7	DEBUGGING	30-Jul-2015	10:48:01	9	1	29	P	3	CMP300_3.bmp	Non-Target	R	2	24	H	9.999000	2	
7	DEBUGGING	30-Jul-2015	10:48:01	9	1	30	P	7	CMP300_7.bmp	Non-Target	I	2	40	H	9.999000	2	
7	DEBUGGING	30-Jul-2015	10:48:02	9	1	31	P	7	CMP300_7.bmp	Non-Target	I	2	40	H	9.999000	2	
7	DEBUGGING	30-Jul-2015	10:48:02	9	1	32	P	2	CMP300_2.bmp	Non-Target	RI	21	48	H	9.999000	2	
7	DEBUGGING	30-Jul-2015	10:48:02	9	1	33	P	6	CMP300_6.bmp	Non-Target	R	1	16	H	9.999000	2	
7	DEBUGGING	30-Jul-2015	10:48:02	9	1	1	NP	8	CMP300_8.bmp	Non-Target	I	1	32	H	9.999000	2	
7	DEBUGGING	30-Jul-2015	10:48:02	9	1	2	NP	3	CMP300_3.bmp	Non-Target	R	2	24	H	9.999000	2	
7	DEBUGGING	30-Jul-2015	10:48:02	9	1	3	NP	2	CMP300_2.bmp	Non-Target	RI	21	48	H	9.999000	2	
7	DEBUGGING	30-Jul-2015	10:48:02	9	1	4	NP	1	CMP300_1.bmp	Non-Target	RRII	22	64	H	9.999000	2	
7	DEBUGGING	30-Jul-2015	10:48:02	9	1	5	NP	6	CMP300_6.bmp	Non-Target	R	1	16	H	9.999000	2	
7	DEBUGGING	30-Jul-2015	10:48:02	9	1	6	NP	7	CMP300_7.bmp	Non-Target	I	2	40	H	9.999000	2	
7	DEBUGGING	30-Jul-2015	10:48:02	9	1	7	NP	7	CMP300_7.bmp	Non-Target	I	2	40	H	9.999000	2	
7	DEBUGGING	30-Jul-2015	10:48:02	9	1	8	NP	3	CMP300_3.bmp	Non-Target	R	2	24	H	9.999000	2	
7	DEBUGGING	30-Jul-2015	10:48:02	9	1	9	NP	2	CMP300_2.bmp	Non-Target	RI	21	48	H	9.999000	2	
7	DEBUGGING	30-Jul-2015	10:48:02	9	1	10	NP	4	CMP300_4.bmp	Non-Target	IR	21	56	H	9.999000	2	
7	DEBUGGING	30-Jul-2015	10:48:02	9	1	11	NP	9	CMP300_9.bmp	Target	T	0	8	H	9.999000	2	
7	DEBUGGING	30-Jul-2015	10:48:02	9	1	12	NP	1	CMP300_1.bmp	Non-Target	RRII	22	64	H	9.999000	2	
7	DEBUGGING	30-Jul-2015	10:48:02	9	1	13	NP	1	CMP300_1.bmp	Non-Target	RRII	22	64	H	9.999000	2	
7	DEBUGGING	30-Jul-2015	10:48:02	9	1	14	NP	3	CMP300_3.bmp	Non-Target	R	2	24	H	9.999000	2	
7	DEBUGGING	30-Jul-2015	10:48:03	9	1	15	NP	4	CMP300_4.bmp	Non-Target	IR	21	56	H	9.999000	2	
7	DEBUGGING	30-Jul-2015	10:48:03	9	1	16	NP	6	CMP300_6.bmp	Non-Target	R	1	16	H	9.999000	2	
7	DEBUGGING	30-Jul-2015	10:48:03	9	1	17	NP	3	CMP300_3.bmp	Non-Target	R	2	24	H	9.999000	2	
7	DEBUGGING	30-Jul-2015	10:48:03	9	1	18	NP	1	CMP300_1.bmp	Non-Target	RRII	22	64	H	9.999000	2	
7	DEBUGGING	30-Jul-2015	10:48:03	9	1	19	NP	7	CMP300_7.bmp	Non-Target	I	2	40	H	9.999000	2	
7	DEBUGGING	30-Jul-2015	10:48:03	9	1	20	NP	2	CMP300_2.bmp	Non-Target	RI	21	48	H	9.999000	2	
7	DEBUGGING	30-Jul-2015	10:48:03	9	1	21	NP	8	CMP300_8.bmp	Non-Target	I	1	32	H	9.999000	2	
7	DEBUGGING	30-Jul-2015	10:48:03	9	1	22	NP	4	CMP300_4.bmp	Non-Target	IR	21	56	H	9.999000	2	
7	DEBUGGING	30-Jul-2015	10:48:03	9	1	23	NP	6	CMP300_6.bmp	Non-Target	R	1	16	H	9.999000	2	
7	DEBUGGING	30-Jul-2015	10:48:03	9	1	24	NP	7	CMP300_7.bmp	Non-Target	I	2	40	H	9.999000	2	
7	DEBUGGING	30-Jul-2015	10:48:03	9	1	25	NP	1	CMP300_1.bmp	Non-Target	RRII	22	64	H	9.999000	2	
7	DEBUGGING	30-Jul-2015	10:48:03	9	1	26	NP	4	CMP300_4.bmp	Non-Target	IR	21	56	H	9.999000	2	
7	DEBUGGING	30-Jul-2015	10:48:03	9	1	27	NP	4	CMP300_4.bmp	Non-Target	IR	21	56	H	9.999000	2	
7	DEBUGGING	30-Jul-2015	10:48:03	9	1	28	NP	6	CMP300_6.bmp	Non-Target	R	1	16	H	9.999000	2	
7	DEBUGGING	30-Jul-2015	10:48:03	9	1	29	NP	7	CMP300_7.bmp	Non-Target	I	2	40	H	9.999000	2	
7	DEBUGGING	30-Jul-2015	10:48:03	9	1	30	NP	7	CMP300_7.bmp	Non-Target	I	2	40	H	9.999000	2	
7	DEBUGGING	30-Jul-2015	10:48:03	9	1	31	NP	1	CMP300_1.bmp	Non-Target	RRII	22	64	H	9.999000	2	
7	DEBUGGING	30-Jul-2015	10:48:03	9	1	32	NP	7	CMP300_7.bmp	Non-Target	I	2	40	H	9.999000	2	
7	DEBUGGING	30-Jul-2015	10:48:03	9	1	33	NP	2	CMP300_2.bmp	Non-Target	RI	21	48	H	9.999000	2	
7	DEBUGGING	30-Jul-2015	10:48:03	9	1	34	NP	6	CMP300_6.bmp	Non-Target	R	1	16	H	9.999000	2	
7	DEBUGGING	30-Jul-2015	10:48:04	9	1	35	NP	9	CMP300_9.bmp	Target	T	0	8	H	9.999000	2	
7	DEBUGGING	30-Jul-2015	10:48:04	9	1	36	NP	3	CMP300_3.bmp	Non-Target	R	2	24	H	9.999000	2	
7	DEBUGGING	30-Jul-2015	10:48:04	9	1	37	NP	4	CMP300_4.bmp	Non-Target	IR	21	56	H	9.999000	2	
7	DEBUGGING	30-Jul-2015	10:48:04	9	1	38	NP	4	CMP300_4.bmp	Non-Target	IR	21	56	H	9.999000	2	
7	DEBUGGING	30-Jul-2015	10:48:04	9	1	39	NP	3	CMP300_3.bmp	Non-Target	R	2	24	H	9.999000	2	
7	DEBUGGING	30-Jul-2015	10:48:04	9	1	40	NP	8	CMP300_8.bmp	Non-Target	I	1	32	H	9.999000	2	
7	DEBUGGING	30-Jul-2015	10:48:04	9	1	41	NP	9	CMP300_9.bmp	Target	T	0	8	H	9.999000	2	
7	DEBUGGING	30-Jul-2015	10:48:04	9	1	42	NP	4	CMP300_4.bmp	Non-Target	IR	21	56	H	9.999000	2	
7	DEBUGGING	30-Jul-2015	10:48:04	9	1	43	NP	1	CMP300_1.bmp	Non-Target	RRII	22	64	H	9.999000	2	
7	DEBUGGING	30-Jul-2015	10:48:04	9	1	44	NP	2	CMP300_2.bmp	Non-Target	RI	21	48	H	9.999000	2	
7	DEBUGGING	30-Jul-2015	10:48:04	9	1	45	NP	6	CMP300_6.bmp	Non-Target	R	1	16	H	9.999000	2	
7	DEBUGGING	30-Jul-2015	10:48:04	9	1	46	NP	4	CMP300_4.bmp	Non-Target	IR	21	56	H	9.999000	2	
7	DEBUGGING	30-Jul-2015	10:48:04	9	1	47	NP	7	CMP300_7.bmp	Non-Target	I	2	40	H	9.999000	2	
7	DEBUGGING	30-Jul-2015	10:48:04	9	1	48	NP	6	CMP300_6.bmp	Non-Target	R	1	16	H	9.999000	2	
7	DEBUGGING	30-Jul-2015	10:48:04	9	1	49	NP	2	CMP300_2.bmp	Non-Target	RI	21	48	H	9.999000	2	
7	DEBUGGING	30-Jul-2015	10:48:04	9	1	50	NP	1	CMP300_1.bmp	Non-Target	RRII	22	64	H	9.999000	2	
7	DEBUGGING	30-Jul-2015	10:48:04	9	1	51	NP	6	CMP300_6.bmp	Non-Target	R	1	16	H	9.999000	2	
7	DEBUGGING	30-Jul-2015	10:48:04	9	1	52	NP	9	CMP300_9.bmp	Target	T	0	8	H	9.999000	2	
7	DEBUGGING	30-Jul-2015	10:48:04	9	1	53	NP	8	CMP300_8.bmp	Non-Target	I	1	32	H	9.999000	2	
7	DEBUGGING	30-Jul-2015	10:48:04	9	1	54	NP	9	CMP300_9.bmp	Target	T	0	8	H	9.999000	2	
7	DEBUGGING	30-Jul-2015	10:48:05	9	1	55	NP	3	CMP300_3.bmp	Non-Target	R	2	24	H	9.999000	2	
7	DEBUGGING	30-Jul-2015	10:48:05	9	1	56	NP	3	CMP300_3.bmp	Non-Target	R	2	24	H	9.999000	2	
7	DEBUGGING	30-Jul-2015	10:48:05	9	1	57	NP	3	CMP300_3.bmp	Non-Target	R	2	24	H	9.999000	2	
7	DEBUGGING	30-Jul-2015	10:48:05	9	1	58	NP	1	CMP300_1.bmp	Non-Target	RRII	22	64	H	9.999000	2	
7	DEBUGGING	30-Jul-2015	10:48:05	9	1	59	NP	9	CMP300_9.bmp	Target	T	0	8	H	9.999000	2	
7	DEBUGGING	30-Jul-2015	10:48:05	9	1	60	NP	1	CMP300_1.bmp	Non-Target	RRII	22	64	H	9.999000	2	
7	DEBUGGING	30-Jul-2015	10:48:05	9	1	61	NP	7	CMP300_7.bmp	Non-Target	I	2	40	H	9.999000	2	
7	DEBUGGING	30-Jul-2015	10:48:05	9	1	62	NP	8	CMP300_8.bmp	Non-Target	I	1	32	H	9.999000	2	
7	DEBUGGING	30-Jul-2015	10:48:05	9	1	63	NP	2	CMP300_2.bmp	Non-Target	RI	21	48	H	9.999000	2	
7	DEBUGGING	30-Jul-2015	10:48:05	9	1	64	NP	4	CMP300_4.bmp	Non-Target	IR	21	56	H	9.999000	2	
7	DEBUGGING	30-Jul-2015	10:48:05	9	1	65	NP	6	CMP300_6.bmp	Non-Target	R	1	16	H	9.999000	2	
7	DEBUGGING	30-Jul-2015	10:48:05	9	1	66	NP	2	CMP300_2.bmp	Non-Target	RI	21	48	H	9.999000	2	
7	DEBUGGING	30-Jul-2015	10:48:05	9	1	67	NP	1	CMP300_1.bmp	Non-Target	RRII	22	64	H	9.999000	2	
7	DEBUGGING	30-Jul-2015	10:48:05	9	1	68	NP	8	CMP300_8.bmp	Non-Target	I	1	32	H	9.999000	2	
7	DEBUGGING	30-Jul-2015	10:48:05	9	1	69	NP	6	CMP300_6.bmp	Non-Target	R	1	16	H	9.999000	2	
7	DEBUGGING	30-Jul-2015	10:48:05	9	1	70	NP	3	CMP300_3.bmp	Non-Target	R	2	24	H	9.999000	2	
7	DEBUGGING	30-Jul-2015	10:48:05	9	1	71	NP	8	CMP300_8.bmp	Non-Target	I	1	32	H	9.999000	2	
7	DEBUGGING	30-Jul-2015	10:48:05	9	1	72	NP	9	CMP300_9.bmp	Target	T	0	8	H	9.999000	2	
7	DEBUGGING	30-Jul-2015	10:48:05	9	1	73	NP	9	CMP300_9.bmp	Target	T	0	8	H	9.999000	2	
7	DEBUGGING	30-Jul-2015	10:48:05	9	1	74	NP	6	CMP300_6.bmp	Non-Target	R	1	16	H	9.999000	2	
7	DEBUGGING	30-Jul-2015	10:48:06	9	1	75	NP	9	CMP300_9.bmp	Target	T	0	8	H	9.999000	2	
7	DEBUGGING	30-Jul-2015	10:48:06	9	1	76	NP	6	CMP300_6.bmp	Non-Target	R	1	16	H	9.999000	2	
7	DEBUGGING	30-Jul-2015	10:48:06	9	1	77	NP	4	CMP300_4.bmp	Non-Target	IR	21	56	H	9.999000	2	
7	DEBUGGING	30-Jul-2015	10:48:06	9	1	78	NP	7	CMP300_7.bmp	Non-Target	I	2	40	H	9.999000	2	
7	DEBUGGING	30-Jul-2015	10:48:06	9	1	79	NP	2	CMP300_2.bmp	Non-Target	RI	21	48	H	9.999000	2	
7	DEBUGGING	30-Jul-2015	10:48:06	9	1	80	NP	8	CMP300_8.bmp	Non-Target	I	1	32	H	9.999000	2	
7	DEBUGGING	30-Jul-2015	10:48:06	9	1	81	NP	7	CMP300_7.bmp	Non-Target	I	2	40	H	9.999000	2	
7	DEBUGGING	30-Jul-2015	10:48:06	9	1	82	NP	8	CMP300_8.bmp	Non-Target	I	1	32	H	9.999000	2	
7	DEBUGGING	30-Jul-2015	10:48:06	9	1	83	NP	8	CMP300_8.bmp	Non-Target	I	1	32	H	9.999000	2	
7	DEBUGGING	30-Jul-2015	10:48:06	9	1	84	NP	3	CMP300_3.bmp	Non-Target	R	2	24	H	9.999000	2	
7	DEBUGGING	30-Jul-2015	10:48:06	9	1	85	NP	2	CMP300_2.bmp	Non-Target	RI	21	48	H	9.999000	2	
7	DEBUGGING	30-Jul-2015	10:48:06	9	1	86	NP	2	CMP300_2.bmp	Non-Target	RI	21	48	H	9.999000	2	
7	DEBUGGING	30-Jul-2015	10:48:06	9	1	87	NP	9	CMP300_9.bmp	Target	T	0	8	H	9.999000	2	
7	DEBUGGING	30-Jul-2015	10:48:06	9	1	88	NP	7	CMP300_7.bmp	Non-Target	I	2	40	H	9.999000	2	
7	DEBUGGING	30-Jul-2015	10:48:06	9	1	89	NP	9	CMP300_9.bmp	Target	T	0	8	H	9.999000	2	
7	DEBUGGING	30-Jul-2015	10:48:06	9	1	90	NP	6	CMP300_6.bmp	Non-Target	R	1	16	H	9.999000	2	
7	DEBUGGING	30-Jul-2015	10:48:06	9	1	91	NP	9	CMP300_9.bmp	Target	T	0	8	H	9.999000	2	
7	DEBUGGING	30-Jul-2015	10:48:06	9	1	92	NP	1	CMP300_1.bmp	Non-Target	RRII	22	64	H	9.999000	2	
7	DEBUGGING	30-Jul-2015	10:48:06	9	1	93	NP	8	CMP300_8.bmp	Non-Target	I	1	32	H	9.999000	2	
7	DEBUGGING	30-Jul-2015	10:48:06	9	1	94	NP	9	CMP300_9.bmp	Target	T	0	8	H	9.999000	2	
7	DEBUGGING	30-Jul-2015	10:48:07	9	1	95	NP	2	CMP300_2.bmp	Non-Target	RI	21	48	H	9.999000	2	
7	DEBUGGING	30-Jul-2015	10:48:07	9	1	96	NP	9	CMP300_9.bmp	Target	T	0	8	H	9.999000	2	
7	DEBUGGING	30-Jul-2015	10:48:07	9	1	97	NP	2	CMP300_2.bmp	Non-Target	RI	21	48	H	9.999000	2	
7	DEBUGGING	30-Jul-2015	10:48:07	9	1	98	NP	9	CMP300_9.bmp	Target	T	0	8	H	9.999000	2	
7	DEBUGGING	30-Jul-2015	10:48:07	9	1	99	NP	9	CMP300_9.bmp	Target	T	0	8	H	9.999000	2	
7	DEBUGGING	30-Jul-2015	10:48:07	9	1	100	NP	2	CMP300_2.bmp	Non-Target	RI	21	48	H	9.999000	2	
7	DEBUGGING	30-Jul-2015	10:48:07	9	1	101	NP	8	CMP300_8.bmp	Non-Target	I	1	32	H	9.999000	2	
7	DEBUGGING	30-Jul-2015	10:48:07	9	1	102	NP	2	CMP300_2.bmp	Non-Target	RI	21	48	H	9.999000	2	
7	DEBUGGING	30-Jul-2015	10:48:07	9	1	103	NP	6	CMP300_6.bmp	Non-Target	R	1	16	H	9.999000	2	
7	DEBUGGING	30-Jul-2015	10:48:07	9	1	104	NP	7	CMP300_7.bmp	Non-Target	I	2	40	H	9.999000	2	
7	DEBUGGING	30-Jul-2015	10:48:07	9	1	105	NP	8	CMP300_8.bmp	Non-Target	I	1	32	H	9.999000	2	
7	DEBUGGING	30-Jul-2015	10:48:07	9	1	106	NP	4	CMP300_4.bmp	Non-Target	IR	21	56	H	9.999000	2	
7	DEBUGGING	30-Jul-2015	10:48:07	9	1	107	NP	1	CMP300_1.bmp	Non-Target	RRII	22	64	H	9.999000	2	
7	DEBUGGING	30-Jul-2015	10:48:07	9	1	108	NP	6	CMP300_6.bmp	Non-Target	R	1	16	H	9.999000	2	
7	DEBUGGING	30-Jul-2015	10:48:07	9	1	109	NP	3	CMP300_3.bmp	Non-Target	R	2	24	H	9.999000	2	
7	DEBUGGING	30-Jul-2015	10:48:07	9	1	110	NP	8	CMP300_8.bmp	Non-Target	I	1	32	H	9.999000	2	
7	DEBUGGING	30-Jul-2015	10:48:07	9	1	111	NP	7	CMP300_7.bmp	Non-Target	I	2	40	H	9.999000	2	
7	DEBUGGING	30-Jul-2015	10:48:07	9	1	112	NP	1	CMP300_1.bmp	Non-Target	RRII	22	64	H	9.999000	2	
7	DEBUGGING	30-Jul-2015	10:48:07	9	1	113	NP	7	CMP300_7.bmp	Non-Target	I	2	40	H	9.999000	2	
7	DEBUGGING	30-Jul-2015	10:48:07	9	1	114	NP	3	CMP300_3.bmp	Non-Target	R	2	24	H	9.999000	2	
7	DEBUGGING	30-Jul-2015	10:48:08	9	1	115	NP	4	CMP300_4.bmp	Non-Target	IR	21	56	H	9.999000	2	
7	DEBUGGING	30-Jul-2015	10:48:08	9	1	116	NP	7	CMP300_7.bmp	Non-Target	I	2	40	H	9.999000	2	
7	DEBUGGING	30-Jul-2015	10:48:08	9	1	117	NP	4	CMP300_4.bmp	Non-Target	IR	21	56	H	9.999000	2	
7	DEBUGGING	30-Jul-2015	10:48:08	9	1	118	NP	7	CMP300_7.bmp	Non-Target	I	2	40	H	9.999000	2	
7	DEBUGGING	30-Jul-2015	10:48:08	9	1	119	NP	3	CMP300_3.bmp	Non-Target	R	2	24	H	9.999000	2	
7	DEBUGGING	30-Jul-2015	10:48:08	9	1	120	NP	4	CMP300_4.bmp	Non-Target	IR	21	56	H	9.999000	2	
7	DEBUGGING	30-Jul-2015	10:48:08	9	1	121	NP	4	CMP300_4.bmp	Non-Target	IR	21	56	H	9.999000	2	
7	DEBUGGING	30-Jul-2015	10:48:08	9	1	122	NP	6	CMP300_6.bmp	Non-Target	R	1	16	H	9.999000	2	
7	DEBUGGING	30-Jul-2015	10:48:08	9	1	123	NP	9	CMP300_9.bmp	Target	T	0	8	H	9.999000	2	
7	DEBUGGING	30-Jul-2015	10:48:08	9	1	124	NP	3	CMP300_3.bmp	Non-Target	R	2	24	H	9.999000	2	
7	DEBUGGING	30-Jul-2015	10:48:08	9	1	125	NP	7	CMP300_7.bmp	Non-Target	I	2	40	H	9.999000	2	
7	DEBUGGING	30-Jul-2015	10:48:08	9	1	126	NP	9	CMP300_9.bmp	Target	T	0	8	H	9.999000	2	
7	DEBUGGING	30-Jul-2015	10:48:08	9	1	127	NP	1	CMP300_1.bmp	Non-Target	RRII	22	64	H	9.999000	2	
7	DEBUGGING	30-Jul-2015	10:48:08	9	1	128	NP	8	CMP300_8.bmp	Non-Target	I	1	32	H	9.999000	2	
7	DEBUGGING	30-Jul-2015	10:48:08	9	1	129	NP	7	CMP300_7.bmp	Non-Target	I	2	40	H	9.999000	2	
7	DEBUGGING	30-Jul-2015	10:48:08	9	1	130	NP	1	CMP300_1.bmp	Non-Target	RRII	22	64	H	9.999000	2	
7	DEBUGGING	30-Jul-2015	10:48:08	9	1	131	NP	2	CMP300_2.bmp	Non-Target	RI	21	48	H	9.999000	2	
7	DEBUGGING	30-Jul-2015	10:48:08	9	1	132	NP	7	CMP300_7.bmp	Non-Target	I	2	40	H	9.999000	2	
7	DEBUGGING	30-Jul-2015	10:48:08	9	1	133	NP	3	CMP300_3.bmp	Non-Target	R	2	24	H	9.999000	2	
7	DEBUGGING	30-Jul-2015	10:48:08	9	1	134	NP	8	CMP300_8.bmp	Non-Target	I	1	32	H	9.999000	2	
7	DEBUGGING	30-Jul-2015	10:48:09	9	1	135	NP	2	CMP300_2.bmp	Non-Target	RI	21	48	H	9.999000	2	
7	DEBUGGING	30-Jul-2015	10:48:09	9	1	136	NP	3	CMP300_3.bmp	Non-Target	R	2	24	H	9.999000	2	
7	DEBUGGING	30-Jul-2015	10:48:09	9	1	137	NP	4	CMP300_4.bmp	Non-Target	IR	21	56	H	9.999000	2	
7	DEBUGGING	30-Jul-2015	10:48:09	9	1	138	NP	6	CMP300_6.bmp	Non-Target	R	1	16	H	9.999000	2	
7	DEBUGGING	30-Jul-2015	10:48:09	9	1	139	NP	3	CMP300_3.bmp	Non-Target	R	2	24	H	9.999000	2	
7	DEBUGGING	30-Jul-2015	10:48:09	9	1	140	NP	1	CMP300_1.bmp	Non-Target	RRII	22	64	H	9.999000	2	
7	DEBUGGING	30-Jul-2015	10:48:09	9	1	141	NP	2	CMP300_2.bmp	Non-Target	RI	21	48	H	9.999000	2	
7	DEBUGGING	30-Jul-2015	10:48:09	9	1	142	NP	2	CMP300_2.bmp	Non-Target	RI	21	48	H	9.999000	2	
7	DEBUGGING	30-Jul-2015	10:48:09	9	1	143	NP	6	CMP300_6.bmp	Non-Target	R	1	16	H	9.999000	2	
7	DEBUGGING	30-Jul-2015	10:48:09	9	1	144	NP	3	CMP300_3.bmp	Non-Target	R	2	24	H	9.999000	2	
7	DEBUGGING	30-Jul-2015	10:48:09	9	1	145	NP	6	CMP300_6.bmp	Non-Target	R	1	16	H	9.999000	2	
7	DEBUGGING	30-Jul-2015	10:48:09	9	1	146	NP	7	CMP300_7.bmp	Non-Target	I	2	40	H	9.999000	2	
7	DEBUGGING	30-Jul-2015	10:48:09	9	1	147	NP	2	CMP300_2.bmp	Non-Target	RI	21	48	H	9.999000	2	
7	DEBUGGING	30-Jul-2015	10:48:09	9	1	148	NP	3	CMP300_3.bmp	Non-Target	R	2	24	H	9.999000	2	
7	DEBUGGING	30-Jul-2015	10:48:09	9	1	149	NP	4	CMP300_4.bmp	Non-Target	IR	21	56	H	9.999000	2	
7	DEBUGGING	30-Jul-2015	10:48:09	9	1	150	NP	3	CMP300_3.bmp	Non-Target	R	2	24	H	9.999000	2	
7	DEBUGGING	30-Jul-2015	10:48:09	9	1	151	NP	7	CMP300_7.bmp	Non-Target	I	2	40	H	9.999000	2	
7	DEBUGGING	30-Jul-2015	10:48:09	9	1	152	NP	7	CMP300_7.bmp	Non-Target	I	2	40	H	9.999000	2	
7	DEBUGGING	30-Jul-2015	10:48:09	9	1	153	NP	2	CMP300_2.bmp	Non-Target	RI	21	48	H	9.999000	2	
7	DEBUGGING	30-Jul-2015	10:48:09	9	1	154	NP	2	CMP300_2.bmp	Non-Target	RI	21	48	H	9.999000	2	
7	DEBUGGING	30-Jul-2015	10:48:10	9	1	155	NP	1	CMP300_1.bmp	Non-Target	RRII	22	64	H	9.999000	2	
7	DEBUGGING	30-Jul-2015	10:48:10	9	1	156	NP	7	CMP300_7.bmp	Non-Target	I	2	40	H	9.999000	2	
7	DEBUGGING	30-Jul-2015	10:48:10	9	1	157	NP	7	CMP300_7.bmp	Non-Target	I	2	40	H	9.999000	2	
7	DEBUGGING	30-Jul-2015	10:48:10	9	1	158	NP	4	CMP300_4.bmp	Non-Target	IR	21	56	H	9.999000	2	
7	DEBUGGING	30-Jul-2015	10:48:10	9	1	159	NP	4	CMP300_4.bmp	Non-Target	IR	21	56	H	9.999000	2	
7	DEBUGGING	30-Jul-2015	10:48:10	9	1	160	NP	6	CMP300_6.bmp	Non-Target	R	1	16	H	9.999000	2	
7	DEBUGGING	30-Jul-2015	10:48:10	9	1	161	NP	9	CMP300_9.bmp	Target	T	0	8	H	9.999000	2	
7	DEBUGGING	30-Jul-2015	10:48:10	9	1	162	NP	6	CMP300_6.bmp	Non-Target	R	1	16	H	9.999000	2	
7	DEBUGGING	30-Jul-2015	10:48:10	9	1	163	NP	2	CMP300_2.bmp	Non-Target	RI	21	48	H	9.999000	2	
7	DEBUGGING	30-Jul-2015	10:48:10	9	1	164	NP	8	CMP300_8.bmp	Non-Target	I	1	32	H	9.999000	2	
7	DEBUGGING	30-Jul-2015	10:48:10	9	1	165	NP	9	CMP300_9.bmp	Target	T	0	8	H	9.999000	2	
7	DEBUGGING	30-Jul-2015	10:48:10	9	1	166	NP	8	CMP300_8.bmp	Non-Target	I	1	32	H	9.999000	2	
7	DEBUGGING	30-Jul-2015	10:48:10	9	1	167	NP	2	CMP300_2.bmp	Non-Target	RI	21	48	H	9.999000	2	
7	DEBUGGING	30-Jul-2015	10:48:10	9	1	168	NP	6	CMP300_6.bmp	Non-Target	R	1	16	H	9.999000	2	
7	DEBUGGING	30-Jul-2015	10:48:10	9	1	169	NP	7	CMP300_7.bmp	Non-Target	I	2	40	H	9.999000	2	
7	DEBUGGING	30-Jul-2015	10:48:10	9	1	170	NP	1	CMP300_1.bmp	Non-Target	RRII	22	64	H	9.999000	2	
7	DEBUGGING	30-Jul-2015	10:48:10	9	1	171	NP	2	CMP300_2.bmp	Non-Target	RI	21	48	H	9.999000	2	
7	DEBUGGING	30-Jul-2015	10:48:10	9	1	172	NP	9	CMP300_9.bmp	Target	T	0	8	H	9.999000	2	
7	DEBUGGING	30-Jul-2015	10:48:10	9	1	173	NP	1	CMP300_1.bmp	Non-Target	RRII	22	64	H	9.999000	2	
7	DEBUGGING	30-Jul-2015	10:48:10	9	1	174	NP	9	CMP300_9.bmp	Target	T	0	8	H	9.999000	2	
7	DEBUGGING	30-Jul-2015	10:48:11	9	1	175	NP	4	CMP300_4.bmp	Non-Target	IR	21	56	H	9.999000	2	
7	DEBUGGING	30-Jul-2015	10:48:11	9	1	176	NP	9	CMP300_9.bmp	Target	T	0	8	H	9.999000	2	
7	DEBUGGING	30-Jul-2015	10:48:11	9	1	177	NP	1	CMP300_1.bmp	Non-Target	RRII	22	64	H	9.999000	2	
7	DEBUGGING	30-Jul-2015	10:48:11	9	1	178	NP	8	CMP300_8.bmp	Non-Target	I	1	32	H	9.999000	2	
7	DEBUGGING	30-Jul-2015	10:48:11	9	1	179	NP	8	CMP300_8.bmp	Non-Target	I	1	32	H	9.999000	2	
7	DEBUGGING	30-Jul-2015	10:48:11	9	1	180	NP	8	CMP300_8.bmp	Non-Target	I	1	32	H	9.999000	2	
7	DEBUGGING	30-Jul-2015	10:48:11	9	1	181	NP	3	CMP300_3.bmp	Non-Target	R	2	24	H	9.999000	2	
7	DEBUGGING	30-Jul-2015	10:48:11	9	1	182	NP	8	CMP300_8.bmp	Non-Target	I	1	32	H	9.999000	2	
7	DEBUGGING	30-Jul-2015	10:48:11	9	1	183	NP	3	CMP300_3.bmp	Non-Target	R	2	24	H	9.999000	2	
7	DEBUGGING	30-Jul-2015	10:48:11	9	1	184	NP	8	CMP300_8.bmp	Non-Target	I	1	32	H	9.999000	2	
7	DEBUGGING	30-Jul-2015	10:48:11	9	1	185	NP	4	CMP300_4.bmp	Non-Target	IR	21	56	H	9.999000	2	
7	DEBUGGING	30-Jul-2015	10:48:11	9	1	186	NP	9	CMP300_9.bmp	Target	T	0	8	H	9.999000	2	
7	DEBUGGING	30-Jul-2015	10:48:11	9	1	187	NP	8	CMP300_8.bmp	Non-Target	I	1	32	H	9.999000	2	
7	DEBUGGING	30-Jul-2015	10:48:11	9	1	188	NP	1	CMP300_1.bmp	Non-Target	RRII	22	64	H	9.999000	2	
7	DEBUGGING	30-Jul-2015	10:48:11	9	1	189	NP	9	CMP300_9.bmp	Target	T	0	8	H	9.999000	2	
7	DEBUGGING	30-Jul-2015	10:48:11	9	1	190	NP	9	CMP300_9.bmp	Target	T	0	8	H	9.999000	2	
7	DEBUGGING	30-Jul-2015	10:48:11	9	1	191	NP	2	CMP300_2.bmp	Non-Target	RI	21	48	H	9.999000	2	
7	DEBUGGING	30-Jul-2015	10:48:11	9	1	192	NP	1	CMP300_1.bmp	Non-Target	RRII	22	64	H	9.999000	2	
7	DEBUGGING	30-Jul-2015	10:48:11	9	1	193	NP	4	CMP300_4.bmp	Non-Target	IR	21	56	H	9.999000	2	
7	DEBUGGING	30-Jul-2015	10:48:11	9	1	194	NP	9	CMP300_9.bmp	Target	T	0	8	H	9.999000	2	
7	DEBUGGING	30-Jul-2015	10:48:12	9	1	195	NP	3	CMP300_3.bmp	Non-Target	R	2	24	H	9.999000	2	
7	DEBUGGING	30-Jul-2015	10:48:12	9	1	196	NP	3	CMP300_3.bmp	Non-Target	R	2	24	H	9.999000	2	
7	DEBUGGING	30-Jul-2015	10:48:12	9	1	197	NP	9	CMP300_9.bmp	Target	T	0	8	H	9.999000	2	
7	DEBUGGING	30-Jul-2015	10:48:12	9	1	198	NP	2	CMP300_2.bmp	Non-Target	RI	21	48	H	9.999000	2	
7	DEBUGGING	30-Jul-2015	10:48:12	9	1	199	NP	8	CMP300_8.bmp	Non-Target	I	1	32	H	9.999000	2	
7	DEBUGGING	30-Jul-2015	10:48:12	9	1	200	NP	3	CMP300_3.bmp	Non-Target	R	2	24	H	9.999000	2	
7	DEBUGGING	30-Jul-2015	10:48:12	9	1	201	NP	9	CMP300_9.bmp	Target	T	0	8	H	9.999000	2	
7	DEBUGGING	30-Jul-2015	10:48:12	9	1	202	NP	8	CMP300_8.bmp	Non-Target	I	1	32	H	9.999000	2	
7	DEBUGGING	30-Jul-2015	10:48:12	9	1	203	NP	4	CMP300_4.bmp	Non-Target	IR	21	56	H	9.999000	2	
7	DEBUGGING	30-Jul-2015	10:48:12	9	1	204	NP	4	CMP300_4.bmp	Non-Target	IR	21	56	H	9.999000	2	
7	DEBUGGING	30-Jul-2015	10:48:12	9	1	205	NP	9	CMP300_9.bmp	Target	T	0	8	H	9.999000	2	
7	DEBUGGING	30-Jul-2015	10:48:12	9	1	206	NP	8	CMP300_8.bmp	Non-Target	I	1	32	H	9.999000	2	
7	DEBUGGING	30-Jul-2015	10:48:12	9	1	207	NP	6	CMP300_6.bmp	Non-Target	R	1	16	H	9.999000	2	
7	DEBUGGING	30-Jul-2015	10:48:12	9	1	208	NP	4	CMP300_4.bmp	Non-Target	IR	21	56	H	9.999000	2	
7	DEBUGGING	30-Jul-2015	10:48:12	9	1	209	NP	7	CMP300_7.bmp	Non-Target	I	2	40	H	9.999000	2	
7	DEBUGGING	30-Jul-2015	10:48:12	9	1	210	NP	4	CMP300_4.bmp	Non-Target	IR	21	56	H	9.999000	2	
7	DEBUGGING	30-Jul-2015	10:48:12	9	1	211	NP	7	CMP300_7.bmp	Non-Target	I	2	40	H	9.999000	2	
7	DEBUGGING	30-Jul-2015	10:48:12	9	1	212	NP	6	CMP300_6.bmp	Non-Target	R	1	16	H	9.999000	2	
7	DEBUGGING	30-Jul-2015	10:48:12	9	1	213	NP	9	CMP300_9.bmp	Target	T	0	8	H	9.999000	2	
7	DEBUGGING	30-Jul-2015	10:48:12	9	1	214	NP	8	CMP300_8.bmp	Non-Target	I	1	32	H	9.999000	2	
7	DEBUGGING	30-Jul-2015	10:48:13	9	1	215	NP	8	CMP300_8.bmp	Non-Target	I	1	32	H	9.999000	2	
7	DEBUGGING	30-Jul-2015	10:48:13	9	1	216	NP	7	CMP300_7.bmp	Non-Target	I	2	40	H	9.999000	2	
7	DEBUGGING	30-Jul-2015	10:48:13	9	1	217	NP	6	CMP300_6.bmp	Non-Target	R	1	16	H	9.999000	2	
7	DEBUGGING	30-Jul-2015	10:48:13	9	1	218	NP	1	CMP300_1.bmp	Non-Target	RRII	22	64	H	9.999000	2	
7	DEBUGGING	30-Jul-2015	10:48:13	9	1	219	NP	3	CMP300_3.bmp	Non-Target	R	2	24	H	9.999000	2	
7	DEBUGGING	30-Jul-2015	10:48:13	9	1	220	NP	9	CMP300_9.bmp	Target	T	0	8	H	9.999000	2	
7	DEBUGGING	30-Jul-2015	10:48:13	9	1	221	NP	1	CMP300_1.bmp	Non-Target	RRII	22	64	H	9.999000	2	
7	DEBUGGING	30-Jul-2015	10:48:13	9	1	222	NP	1	CMP300_1.bmp	Non-Target	RRII	22	64	H	9.999000	2	
7	DEBUGGING	30-Jul-2015	10:48:13	9	1	223	NP	4	CMP300_4.bmp	Non-Target	IR	21	56	H	9.999000	2	
7	DEBUGGING	30-Jul-2015	10:48:13	9	1	224	NP	6	CMP300_6.bmp	Non-Target	R	1	16	H	9.999000	2	
7	DEBUGGING	30-Jul-2015	10:48:13	9	1	225	NP	2	CMP300_2.bmp	Non-Target	RI	21	48	H	9.999000	2	
7	DEBUGGING	30-Jul-2015	10:48:13	9	1	226	NP	9	CMP300_9.bmp	Target	T	0	8	H	9.999000	2	
7	DEBUGGING	30-Jul-2015	10:48:13	9	1	227	NP	1	CMP300_1.bmp	Non-Target	RRII	22	64	H	9.999000	2	
7	DEBUGGING	30-Jul-2015	10:48:13	9	1	228	NP	3	CMP300_3.bmp	Non-Target	R	2	24	H	9.999000	2	
7	DEBUGGING	30-Jul-2015	10:48:13	9	1	229	NP	9	CMP300_9.bmp	Target	T	0	8	H	9.999000	2	
7	DEBUGGING	30-Jul-2015	10:48:13	9	1	230	NP	8	CMP300_8.bmp	Non-Target	I	1	32	H	9.999000	2	
7	DEBUGGING	30-Jul-2015	10:48:13	9	1	231	NP	4	CMP300_4.bmp	Non-Target	IR	21	56	H	9.999000	2	
7	DEBUGGING	30-Jul-2015	10:48:13	9	1	232	NP	4	CMP300_4.bmp	Non-Target	IR	21	56	H	9.999000	2	
7	DEBUGGING	30-Jul-2015	10:48:13	9	1	233	NP	3	CMP300_3.bmp	Non-Target	R	2	24	H	9.999000	2	
7	DEBUGGING	30-Jul-2015	10:48:13	9	1	234	NP	8	CMP300_8.bmp	Non-Target	I	1	32	H	9.999000	2	
7	DEBUGGING	30-Jul-2015	10:48:14	9	1	235	NP	4	CMP300_4.bmp	Non-Target	IR	21	56	H	9.999000	2	
7	DEBUGGING	30-Jul-2015	10:48:14	9	1	236	NP	3	CMP300_3.bmp	Non-Target	R	2	24	H	9.999000	2	
7	DEBUGGING	30-Jul-2015	10:48:14	9	1	237	NP	6	CMP300_6.bmp	Non-Target	R	1	16	H	9.999000	2	
7	DEBUGGING	30-Jul-2015	10:48:14	9	1	238	NP	4	CMP300_4.bmp	Non-Target	IR	21	56	H	9.999000	2	
7	DEBUGGING	30-Jul-2015	10:48:14	9	1	239	NP	3	CMP300_3.bmp	Non-Target	R	2	24	H	9.999000	2	
7	DEBUGGING	30-Jul-2015	10:48:14	9	1	240	NP	8	CMP300_8.bmp	Non-Target	I	1	32	H	9.999000	2	
7	DEBUGGING	30-Jul-2015	10:48:14	9	1	241	NP	9	CMP300_9.bmp	Target	T	0	8	H	9.999000	2	
7	DEBUGGING	30-Jul-2015	10:48:14	9	1	242	NP	6	CMP300_6.bmp	Non-Target	R	1	16	H	9.999000	2	
7	DEBUGGING	30-Jul-2015	10:48:14	9	1	243	NP	9	CMP300_9.bmp	Target	T	0	8	H	9.999000	2	
7	DEBUGGING	30-Jul-2015	10:48:14	9	1	244	NP	1	CMP300_1.bmp	Non-Target	RRII	22	64	H	9.999000	2	
7	DEBUGGING	30-Jul-2015	10:48:14	9	1	245	NP	6	CMP300_6.bmp	Non-Target	R	1	16	H	9.999000	2	
7	DEBUGGING	30-Jul-2015	10:48:14	9	1	246	NP	8	CMP300_8.bmp	Non-Target	I	1	32	H	9.999000	2	
7	DEBUGGING	30-Jul-2015	10:48:14	9	1	247	NP	7	CMP300_7.bmp	Non-Target	I	2	40	H	9.999000	2	
7	DEBUGGING	30-Jul-2015	10:48:14	9	1	248	NP	4	CMP300_4.bmp	Non-Target	IR	21	56	H	9.999000	2	
7	DEBUGGING	30-Jul-2015	10:48:14	9	1	249	NP	9	CMP300_9.bmp	Target	T	0	8	H	9.999000	2	
7	DEBUGGING	30-Jul-2015	10:48:14	9	1	250	NP	7	CMP300_7.bmp	Non-Target	I	2	40	H	9.999000	2	
7	DEBUGGING	30-Jul-2015	10:48:14	9	1	251	NP	7	CMP300_7.bmp	Non-Target	I	2	40	H	9.999000	2	
7	DEBUGGING	30-Jul-2015	10:48:14	9	1	252	NP	9	CMP300_9.bmp	Target	T	0	8	H	9.999000	2	
7	DEBUGGING	30-Jul-2015	10:48:14	9	1	253	NP	6	CMP300_6.bmp	Non-Target	R	1	16	H	9.999000	2	
7	DEBUGGING	30-Jul-2015	10:48:14	9	1	254	NP	6	CMP300_6.bmp	Non-Target	R	1	16	H	9.999000	2	
7	DEBUGGING	30-Jul-2015	10:48:15	9	1	255	NP	6	CMP300_6.bmp	Non-Target	R	1	16	H	9.999000	2	
7	DEBUGGING	30-Jul-2015	10:48:15	9	1	256	NP	1	CMP300_1.bmp	Non-Target	RRII	22	64	H	9.999000	2	
7	DEBUGGING	30-Jul-2015	10:48:15	9	1	257	NP	1	CMP300_1.bmp	Non-Target	RRII	22	64	H	9.999000	2	
7	DEBUGGING	30-Jul-2015	10:48:15	9	1	258	NP	6	CMP300_6.bmp	Non-Target	R	1	16	H	9.999000	2	
7	DEBUGGING	30-Jul-2015	10:48:15	9	1	259	NP	6	CMP300_6.bmp	Non-Target	R	1	16	H	9.999000	2	
7	DEBUGGING	30-Jul-2015	10:48:15	9	1	260	NP	9	CMP300_9.bmp	Target	T	0	8	H	9.999000	2	
7	DEBUGGING	30-Jul-2015	10:48:15	9	1	261	NP	8	CMP300_8.bmp	Non-Target	I	1	32	H	9.999000	2	
7	DEBUGGING	30-Jul-2015	10:48:15	9	1	262	NP	3	CMP300_3.bmp	Non-Target	R	2	24	H	9.999000	2	
7	DEBUGGING	30-Jul-2015	10:48:15	9	1	263	NP	9	CMP300_9.bmp	Target	T	0	8	H	9.999000	2	
7	DEBUGGING	30-Jul-2015	10:48:15	9	1	264	NP	7	CMP300_7.bmp	Non-Target	I	2	40	H	9.999000	2	
7	DEBUGGING	30-Jul-2015	10:48:15	9	1	265	NP	4	CMP300_4.bmp	Non-Target	IR	21	56	H	9.999000	2	
7	DEBUGGING	30-Jul-2015	10:48:15	9	1	266	NP	3	CMP300_3.bmp	Non-Target	R	2	24	H	9.999000	2	
7	DEBUGGING	30-Jul-2015	10:48:15	9	1	267	NP	2	CMP300_2.bmp	Non-Target	RI	21	48	H	9.999000	2	
7	DEBUGGING	30-Jul-2015	10:48:15	9	1	268	NP	1	CMP300_1.bmp	Non-Target	RRII	22	64	H	9.999000	2	
7	DEBUGGING	30-Jul-2015	10:48:15	9	1	269	NP	7	CMP300_7.bmp	Non-Target	I	2	40	H	9.999000	2	
7	DEBUGGING	30-Jul-2015	10:48:15	9	1	270	NP	9	CMP300_9.bmp	Target	T	0	8	H	9.999000	2	
7	DEBUGGING	30-Jul-2015	10:48:15	9	1	271	NP	2	CMP300_2.bmp	Non-Target	RI	21	48	H	9.999000	2	
7	DEBUGGING	30-Jul-2015	10:48:15	9	1	272	NP	8	CMP300_8.bmp	Non-Target	I	1	32	H	9.999000	2	
7	DEBUGGING	30-Jul-2015	10:48:15	9	1	273	NP	2	CMP300_2.bmp	Non-Target	RI	21	48	H	9.999000	2	
7	DEBUGGING	30-Jul-2015	10:48:16	9	1	274	NP	8	CMP300_8.bmp	Non-Target	I	1	32	H	9.999000	2	
7	DEBUGGING	30-Jul-2015	10:48:16	9	1	275	NP	6	CMP300_6.bmp	Non-Target	R	1	16	H	9.999000	2	
7	DEBUGGING	30-Jul-2015	10:48:16	9	1	276	NP	6	CMP300_6.bmp	Non-Target	R	1	16	H	9.999000	2	
7	DEBUGGING	30-Jul-2015	10:48:16	9	1	277	NP	2	CMP300_2.bmp	Non-Target	RI	21	48	H	9.999000	2	
7	DEBUGGING	30-Jul-2015	10:48:16	9	1	278	NP	1	CMP300_1.bmp	Non-Target	RRII	22	64	H	9.999000	2	
7	DEBUGGING	30-Jul-2015	10:48:16	9	1	279	NP	2	CMP300_2.bmp	Non-Target	RI	21	48	H	9.999000	2	
7	DEBUGGING	30-Jul-2015	10:48:16	9	1	280	NP	4	CMP300_4.bmp	Non-Target	IR	21	56	H	9.999000	2	
7	DEBUGGING	30-Jul-2015	10:48:16	9	1	281	NP	3	CMP300_3.bmp	Non-Target	R	2	24	H	9.999000	2	
7	DEBUGGING	30-Jul-2015	10:48:16	9	1	282	NP	2	CMP300_2.bmp	Non-Target	RI	21	48	H	9.999000	2	
7	DEBUGGING	30-Jul-2015	10:48:16	9	1	283	NP	3	CMP300_3.bmp	Non-Target	R	2	24	H	9.999000	2	
7	DEBUGGING	30-Jul-2015	10:48:16	9	1	284	NP	3	CMP300_3.bmp	Non-Target	R	2	24	H	9.999000	2	
7	DEBUGGING	30-Jul-2015	10:48:16	9	1	285	NP	2	CMP300_2.bmp	Non-Target	RI	21	48	H	9.999000	2	
7	DEBUGGING	30-Jul-2015	10:48:16	9	1	286	NP	2	CMP300_2.bmp	Non-Target	RI	21	48	H	9.999000	2	
7	DEBUGGING	30-Jul-2015	10:48:16	9	1	287	NP	7	CMP300_7.bmp	Non-Target	I	2	40	H	9.999000	2	
7	DEBUGGING	30-Jul-2015	10:48:16	9	1	288	NP	7	CMP300_7.bmp	Non-Target	I	2	40	H	9.999000	2	
7	DEBUGGING	30-Jul-2015	10:48:16	9	1	289	NP	4	CMP300_4.bmp	Non-Target	IR	21	56	H	9.999000	2	
7	DEBUGGING	30-Jul-2015	10:48:16	9	1	290	NP	9	CMP300_9.bmp	Target	T	0	8	H	9.999000	2	
7	DEBUGGING	30-Jul-2015	10:48:16	9	1	291	NP	9	CMP300_9.bmp	Target	T	0	8	H	9.999000	2	
7	DEBUGGING	30-Jul-2015	10:48:16	9	1	292	NP	9	CMP300_9.bmp	Target	T	0	8	H	9.999000	2	
7	DEBUGGING	30-Jul-2015	10:48:16	9	1	293	NP	1	CMP300_1.bmp	Non-Target	RRII	22	64	H	9.999000	2	
7	DEBUGGING	30-Jul-2015	10:48:17	9	1	294	NP	9	CMP300_9.bmp	Target	T	0	8	H	9.999000	2	
7	DEBUGGING	30-Jul-2015	10:48:17	9	1	295	NP	1	CMP300_1.bmp	Non-Target	RRII	22	64	H	9.999000	2	
7	DEBUGGING	30-Jul-2015	10:48:17	9	1	296	NP	1	CMP300_1.bmp	Non-Target	RRII	22	64	H	9.999000	2	
7	DEBUGGING	30-Jul-2015	10:48:17	9	1	297	NP	1	CMP300_1.bmp	Non-Target	RRII	22	64	H	9.999000	2	
7	DEBUGGING	30-Jul-2015	10:48:17	9	2	1	NP	3	CMP300_3.bmp	Non-Target	R	2	24	H	9.999000	2	
7	DEBUGGING	30-Jul-2015	10:48:17	9	2	2	NP	6	CMP300_6.bmp	Non-Target	R	1	16	H	9.999000	2	
7	DEBUGGING	30-Jul-2015	10:48:17	9	2	3	NP	2	CMP300_2.bmp	Non-Target	RI	21	48	H	9.999000	2	
7	DEBUGGING	30-Jul-2015	10:48:17	9	2	4	NP	6	CMP300_6.bmp	Non-Target	R	1	16	H	9.999000	2	
7	DEBUGGING	30-Jul-2015	10:48:17	9	2	5	NP	7	CMP300_7.bmp	Non-Target	I	2	40	H	9.999000	2	
7	DEBUGGING	30-Jul-2015	10:48:17	9	2	6	NP	8	CMP300_8.bmp	Non-Target	I	1	32	H	9.999000	2	
7	DEBUGGING	30-Jul-2015	10:48:17	9	2	7	NP	1	CMP300_1.bmp	Non-Target	RRII	22	64	H	9.999000	2	
7	DEBUGGING	30-Jul-2015	10:48:17	9	2	8	NP	1	CMP300_1.bmp	Non-Target	RRII	22	64	H	9.999000	2	
7	DEBUGGING	30-Jul-2015	10:48:17	9	2	9	NP	6	CMP300_6.bmp	Non-Target	R	1	16	H	9.999000	2	
7	DEBUGGING	30-Jul-2015	10:48:17	9	2	10	NP	9	CMP300_9.bmp	Target	T	0	8	H	9.999000	2	
7	DEBUGGING	30-Jul-2015	10:48:17	9	2	11	NP	9	CMP300_9.bmp	Target	T	0	8	H	9.999000	2	
7	DEBUGGING	30-Jul-2015	10:48:17	9	2	12	NP	2	CMP300_2.bmp	Non-Target	RI	21	48	H	9.999000	2	
7	DEBUGGING	30-Jul-2015	10:48:17	9	2	13	NP	1	CMP300_1.bmp	Non-Target	RRII	22	64	H	9.999000	2	
7	DEBUGGING	30-Jul-2015	10:48:17	9	2	14	NP	2	CMP300_2.bmp	Non-Target	RI	21	48	H	9.999000	2	
7	DEBUGGING	30-Jul-2015	10:48:17	9	2	15	NP	9	CMP300_9.bmp	Target	T	0	8	H	9.999000	2	
7	DEBUGGING	30-Jul-2015	10:48:18	9	2	16	NP	4	CMP300_4.bmp	Non-Target	IR	21	56	H	9.999000	2	
7	DEBUGGING	30-Jul-2015	10:48:18	9	2	17	NP	4	CMP300_4.bmp	Non-Target	IR	21	56	H	9.999000	2	
7	DEBUGGING	30-Jul-2015	10:48:18	9	2	18	NP	7	CMP300_7.bmp	Non-Target	I	2	40	H	9.999000	2	
7	DEBUGGING	30-Jul-2015	10:48:18	9	2	19	NP	8	CMP300_8.bmp	Non-Target	I	1	32	H	9.999000	2	
7	DEBUGGING	30-Jul-2015	10:48:18	9	2	20	NP	3	CMP300_3.bmp	Non-Target	R	2	24	H	9.999000	2	
7	DEBUGGING	30-Jul-2015	10:48:18	9	2	21	NP	7	CMP300_7.bmp	Non-Target	I	2	40	H	9.999000	2	
7	DEBUGGING	30-Jul-2015	10:48:18	9	2	22	NP	1	CMP300_1.bmp	Non-Target	RRII	22	64	H	9.999000	2	
7	DEBUGGING	30-Jul-2015	10:48:18	9	2	23	NP	3	CMP300_3.bmp	Non-Target	R	2	24	H	9.999000	2	
7	DEBUGGING	30-Jul-2015	10:48:18	9	2	24	NP	1	CMP300_1.bmp	Non-Target	RRII	22	64	H	9.999000	2	
7	DEBUGGING	30-Jul-2015	10:48:18	9	2	25	NP	2	CMP300_2.bmp	Non-Target	RI	21	48	H	9.999000	2	
7	DEBUGGING	30-Jul-2015	10:48:18	9	2	26	NP	2	CMP300_2.bmp	Non-Target	RI	21	48	H	9.999000	2	
7	DEBUGGING	30-Jul-2015	10:48:18	9	2	27	NP	2	CMP300_2.bmp	Non-Target	RI	21	48	H	9.999000	2	
7	DEBUGGING	30-Jul-2015	10:48:18	9	2	28	NP	2	CMP300_2.bmp	Non-Target	RI	21	48	H	9.999000	2	
7	DEBUGGING	30-Jul-2015	10:48:18	9	2	29	NP	9	CMP300_9.bmp	Target	T	0	8	H	9.999000	2	
7	DEBUGGING	30-Jul-2015	10:48:18	9	2	30	NP	7	CMP300_7.bmp	Non-Target	I	2	40	H	9.999000	2	
7	DEBUGGING	30-Jul-2015	10:48:18	9	2	31	NP	4	CMP300_4.bmp	Non-Target	IR	21	56	H	9.999000	2	
7	DEBUGGING	30-Jul-2015	10:48:18	9	2	32	NP	7	CMP300_7.bmp	Non-Target	I	2	40	H	9.999000	2	
7	DEBUGGING	30-Jul-2015	10:48:18	9	2	33	NP	8	CMP300_8.bmp	Non-Target	I	1	32	H	9.999000	2	
7	DEBUGGING	30-Jul-2015	10:48:18	9	2	34	NP	2	CMP300_2.bmp	Non-Target	RI	21	48	H	9.999000	2	
7	DEBUGGING	30-Jul-2015	10:48:18	9	2	35	NP	2	CMP300_2.bmp	Non-Target	RI	21	48	H	9.999000	2	
7	DEBUGGING	30-Jul-2015	10:48:19	9	2	36	NP	7	CMP300_7.bmp	Non-Target	I	2	40	H	9.999000	2	
7	DEBUGGING	30-Jul-2015	10:48:19	9	2	37	NP	9	CMP300_9.bmp	Target	T	0	8	H	9.999000	2	
7	DEBUGGING	30-Jul-2015	10:48:19	9	2	38	NP	8	CMP300_8.bmp	Non-Target	I	1	32	H	9.999000	2	
7	DEBUGGING	30-Jul-2015	10:48:19	9	2	39	NP	2	CMP300_2.bmp	Non-Target	RI	21	48	H	9.999000	2	
7	DEBUGGING	30-Jul-2015	10:48:19	9	2	40	NP	3	CMP300_3.bmp	Non-Target	R	2	24	H	9.999000	2	
7	DEBUGGING	30-Jul-2015	10:48:19	9	2	41	NP	6	CMP300_6.bmp	Non-Target	R	1	16	H	9.999000	2	
7	DEBUGGING	30-Jul-2015	10:48:19	9	2	42	NP	9	CMP300_9.bmp	Target	T	0	8	H	9.999000	2	
7	DEBUGGING	30-Jul-2015	10:48:19	9	2	43	NP	1	CMP300_1.bmp	Non-Target	RRII	22	64	H	9.999000	2	
7	DEBUGGING	30-Jul-2015	10:48:19	9	2	44	NP	4	CMP300_4.bmp	Non-Target	IR	21	56	H	9.999000	2	
7	DEBUGGING	30-Jul-2015	10:48:19	9	2	45	NP	6	CMP300_6.bmp	Non-Target	R	1	16	H	9.999000	2	
7	DEBUGGING	30-Jul-2015	10:48:19	9	2	46	NP	2	CMP300_2.bmp	Non-Target	RI	21	48	H	9.999000	2	
7	DEBUGGING	30-Jul-2015	10:48:19	9	2	47	NP	9	CMP300_9.bmp	Target	T	0	8	H	9.999000	2	
7	DEBUGGING	30-Jul-2015	10:48:19	9	2	48	NP	1	CMP300_1.bmp	Non-Target	RRII	22	64	H	9.999000	2	
7	DEBUGGING	30-Jul-2015	10:48:19	9	2	49	NP	9	CMP300_9.bmp	Target	T	0	8	H	9.999000	2	
7	DEBUGGING	30-Jul-2015	10:48:19	9	2	50	NP	1	CMP300_1.bmp	Non-Target	RRII	22	64	H	9.999000	2	
7	DEBUGGING	30-Jul-2015	10:48:19	9	2	51	NP	9	CMP300_9.bmp	Target	T	0	8	H	9.999000	2	
7	DEBUGGING	30-Jul-2015	10:48:19	9	2	52	NP	3	CMP300_3.bmp	Non-Target	R	2	24	H	9.999000	2	
7	DEBUGGING	30-Jul-2015	10:48:19	9	2	53	NP	8	CMP300_8.bmp	Non-Target	I	1	32	H	9.999000	2	
7	DEBUGGING	30-Jul-2015	10:48:19	9	2	54	NP	4	CMP300_4.bmp	Non-Target	IR	21	56	H	9.999000	2	
7	DEBUGGING	30-Jul-2015	10:48:20	9	2	55	NP	9	CMP300_9.bmp	Target	T	0	8	H	9.999000	2	
7	DEBUGGING	30-Jul-2015	10:48:20	9	2	56	NP	8	CMP300_8.bmp	Non-Target	I	1	32	H	9.999000	2	
7	DEBUGGING	30-Jul-2015	10:48:20	9	2	57	NP	4	CMP300_4.bmp	Non-Target	IR	21	56	H	9.999000	2	
7	DEBUGGING	30-Jul-2015	10:48:20	9	2	58	NP	3	CMP300_3.bmp	Non-Target	R	2	24	H	9.999000	2	
7	DEBUGGING	30-Jul-2015	10:48:20	9	2	59	NP	6	CMP300_6.bmp	Non-Target	R	1	16	H	9.999000	2	
7	DEBUGGING	30-Jul-2015	10:48:20	9	2	60	NP	3	CMP300_3.bmp	Non-Target	R	2	24	H	9.999000	2	
7	DEBUGGING	30-Jul-2015	10:48:20	9	2	61	NP	8	CMP300_8.bmp	Non-Target	I	1	32	H	9.999000	2	
7	DEBUGGING	30-Jul-2015	10:48:20	9	2	62	NP	2	CMP300_2.bmp	Non-Target	RI	21	48	H	9.999000	2	
7	DEBUGGING	30-Jul-2015	10:48:20	9	2	63	NP	8	CMP300_8.bmp	Non-Target	I	1	32	H	9.999000	2	
7	DEBUGGING	30-Jul-2015	10:48:20	9	2	64	NP	9	CMP300_9.bmp	Target	T	0	8	H	9.999000	2	
7	DEBUGGING	30-Jul-2015	10:48:20	9	2	65	NP	1	CMP300_1.bmp	Non-Target	RRII	22	64	H	9.999000	2	
7	DEBUGGING	30-Jul-2015	10:48:20	9	2	66	NP	7	CMP300_7.bmp	Non-Target	I	2	40	H	9.999000	2	
7	DEBUGGING	30-Jul-2015	10:48:20	9	2	67	NP	2	CMP300_2.bmp	Non-Target	RI	21	48	H	9.999000	2	
7	DEBUGGING	30-Jul-2015	10:48:20	9	2	68	NP	2	CMP300_2.bmp	Non-Target	RI	21	48	H	9.999000	2	
7	DEBUGGING	30-Jul-2015	10:48:20	9	2	69	NP	3	CMP300_3.bmp	Non-Target	R	2	24	H	9.999000	2	
7	DEBUGGING	30-Jul-2015	10:48:20	9	2	70	NP	4	CMP300_4.bmp	Non-Target	IR	21	56	H	9.999000	2	
7	DEBUGGING	30-Jul-2015	10:48:20	9	2	71	NP	1	CMP300_1.bmp	Non-Target	RRII	22	64	H	9.999000	2	
7	DEBUGGING	30-Jul-2015	10:48:20	9	2	72	NP	7	CMP300_7.bmp	Non-Target	I	2	40	H	9.999000	2	
7	DEBUGGING	30-Jul-2015	10:48:20	9	2	73	NP	8	CMP300_8.bmp	Non-Target	I	1	32	H	9.999000	2	
7	DEBUGGING	30-Jul-2015	10:48:20	9	2	74	NP	6	CMP300_6.bmp	Non-Target	R	1	16	H	9.999000	2	
7	DEBUGGING	30-Jul-2015	10:48:21	9	2	75	NP	4	CMP300_4.bmp	Non-Target	IR	21	56	H	9.999000	2	
7	DEBUGGING	30-Jul-2015	10:48:21	9	2	76	NP	1	CMP300_1.bmp	Non-Target	RRII	22	64	H	9.999000	2	
7	DEBUGGING	30-Jul-2015	10:48:21	9	2	77	NP	4	CMP300_4.bmp	Non-Target	IR	21	56	H	9.999000	2	
7	DEBUGGING	30-Jul-2015	10:48:21	9	2	78	NP	2	CMP300_2.bmp	Non-Target	RI	21	48	H	9.999000	2	
7	DEBUGGING	30-Jul-2015	10:48:21	9	2	79	NP	7	CMP300_7.bmp	Non-Target	I	2	40	H	9.999000	2	
7	DEBUGGING	30-Jul-2015	10:48:21	9	2	80	NP	9	CMP300_9.bmp	Target	T	0	8	H	9.999000	2	
7	DEBUGGING	30-Jul-2015	10:48:21	9	2	81	NP	1	CMP300_1.bmp	Non-Target	RRII	22	64	H	9.999000	2	
7	DEBUGGING	30-Jul-2015	10:48:21	9	2	82	NP	9	CMP300_9.bmp	Target	T	0	8	H	9.999000	2	
7	DEBUGGING	30-Jul-2015	10:48:21	9	2	83	NP	8	CMP300_8.bmp	Non-Target	I	1	32	H	9.999000	2	
7	DEBUGGING	30-Jul-2015	10:48:21	9	2	84	NP	4	CMP300_4.bmp	Non-Target	IR	21	56	H	9.999000	2	
7	DEBUGGING	30-Jul-2015	10:48:21	9	2	85	NP	2	CMP300_2.bmp	Non-Target	RI	21	48	H	9.999000	2	
7	DEBUGGING	30-Jul-2015	10:48:21	9	2	86	NP	1	CMP300_1.bmp	Non-Target	RRII	22	64	H	9.999000	2	
7	DEBUGGING	30-Jul-2015	10:48:21	9	2	87	NP	4	CMP300_4.bmp	Non-Target	IR	21	56	H	9.999000	2	
7	DEBUGGING	30-Jul-2015	10:48:21	9	2	88	NP	7	CMP300_7.bmp	Non-Target	I	2	40	H	9.999000	2	
7	DEBUGGING	30-Jul-2015	10:48:21	9	2	89	NP	1	CMP300_1.bmp	Non-Target	RRII	22	64	H	9.999000	2	
7	DEBUGGING	30-Jul-2015	10:48:21	9	2	90	NP	1	CMP300_1.bmp	Non-Target	RRII	22	64	H	9.999000	2	
7	DEBUGGING	30-Jul-2015	10:48:21	9	2	91	NP	3	CMP300_3.bmp	Non-Target	R	2	24	H	9.999000	2	
7	DEBUGGING	30-Jul-2015	10:48:21	9	2	92	NP	4	CMP300_4.bmp	Non-Target	IR	21	56	H	9.999000	2	
7	DEBUGGING	30-Jul-2015	10:48:21	9	2	93	NP	1	CMP300_1.bmp	Non-Target	RRII	22	64	H	9.999000	2	
7	DEBUGGING	30-Jul-2015	10:48:21	9	2	94	NP	2	CMP300_2.bmp	Non-Target	RI	21	48	H	9.999000	2	
7	DEBUGGING	30-Jul-2015	10:48:22	9	2	95	NP	6	CMP300_6.bmp	Non-Target	R	1	16	H	9.999000	2	
7	DEBUGGING	30-Jul-2015	10:48:22	9	2	96	NP	9	CMP300_9.bmp	Target	T	0	8	H	9.999000	2	
7	DEBUGGING	30-Jul-2015	10:48:22	9	2	97	NP	7	CMP300_7.bmp	Non-Target	I	2	40	H	9.999000	2	
7	DEBUGGING	30-Jul-2015	10:48:22	9	2	98	NP	3	CMP300_3.bmp	Non-Target	R	2	24	H	9.999000	2	
7	DEBUGGING	30-Jul-2015	10:48:22	9	2	99	NP	8	CMP300_8.bmp	Non-Target	I	1	32	H	9.999000	2	
7	DEBUGGING	30-Jul-2015	10:48:22	9	2	100	NP	4	CMP300_4.bmp	Non-Target	IR	21	56	H	9.999000	2	
7	DEBUGGING	30-Jul-2015	10:48:22	9	2	101	NP	8	CMP300_8.bmp	Non-Target	I	1	32	H	9.999000	2	
7	DEBUGGING	30-Jul-2015	10:48:22	9	2	102	NP	9	CMP300_9.bmp	Target	T	0	8	H	9.999000	2	
7	DEBUGGING	30-Jul-2015	10:48:22	9	2	103	NP	6	CMP300_6.bmp	Non-Target	R	1	16	H	9.999000	2	
7	DEBUGGING	30-Jul-2015	10:48:22	9	2	104	NP	7	CMP300_7.bmp	Non-Target	I	2	40	H	9.999000	2	
7	DEBUGGING	30-Jul-2015	10:48:22	9	2	105	NP	3	CMP300_3.bmp	Non-Target	R	2	24	H	9.999000	2	
7	DEBUGGING	30-Jul-2015	10:48:22	9	2	106	NP	6	CMP300_6.bmp	Non-Target	R	1	16	H	9.999000	2	
7	DEBUGGING	30-Jul-2015	10:48:22	9	2	107	NP	9	CMP300_9.bmp	Target	T	0	8	H	9.999000	2	
7	DEBUGGING	30-Jul-2015	10:48:22	9	2	108	NP	8	CMP300_8.bmp	Non-Target	I	1	32	H	9.999000	2	
7	DEBUGGING	30-Jul-2015	10:48:22	9	2	109	NP	9	CMP300_9.bmp	Target	T	0	8	H	9.999000	2	
7	DEBUGGING	30-Jul-2015	10:48:22	9	2	110	NP	4	CMP300_4.bmp	Non-Target	IR	21	56	H	9.999000	2	
7	DEBUGGING	30-Jul-2015	10:48:22	9	2	111	NP	3	CMP300_3.bmp	Non-Target	R	2	24	H	9.999000	2	
7	DEBUGGING	30-Jul-2015	10:48:22	9	2	112	NP	8	CMP300_8.bmp	Non-Target	I	1	32	H	9.999000	2	
7	DEBUGGING	30-Jul-2015	10:48:22	9	2	113	NP	6	CMP300_6.bmp	Non-Target	R	1	16	H	9.999000	2	
7	DEBUGGING	30-Jul-2015	10:48:22	9	2	114	NP	3	CMP300_3.bmp	Non-Target	R	2	24	H	9.999000	2	
7	DEBUGGING	30-Jul-2015	10:48:23	9	2	115	NP	1	CMP300_1.bmp	Non-Target	RRII	22	64	H	9.999000	2	
7	DEBUGGING	30-Jul-2015	10:48:23	9	2	116	NP	6	CMP300_6.bmp	Non-Target	R	1	16	H	9.999000	2	
7	DEBUGGING	30-Jul-2015	10:48:23	9	2	117	NP	3	CMP300_3.bmp	Non-Target	R	2	24	H	9.999000	2	
7	DEBUGGING	30-Jul-2015	10:48:23	9	2	118	NP	8	CMP300_8.bmp	Non-Target	I	1	32	H	9.999000	2	
7	DEBUGGING	30-Jul-2015	10:48:23	9	2	119	NP	6	CMP300_6.bmp	Non-Target	R	1	16	H	9.999000	2	
7	DEBUGGING	30-Jul-2015	10:48:23	9	2	120	NP	8	CMP300_8.bmp	Non-Target	I	1	32	H	9.999000	2	
7	DEBUGGING	30-Jul-2015	10:48:23	9	2	121	NP	9	CMP300_9.bmp	Target	T	0	8	H	9.999000	2	
7	DEBUGGING	30-Jul-2015	10:48:23	9	2	122	NP	9	CMP300_9.bmp	Target	T	0	8	H	9.999000	2	
7	DEBUGGING	30-Jul-2015	10:48:23	9	2	123	NP	8	CMP300_8.bmp	Non-Target	I	1	32	H	9.999000	2	
7	DEBUGGING	30-Jul-2015	10:48:23	9	2	124	NP	9	CMP300_9.bmp	Target	T	0	8	H	9.999000	2	
7	DEBUGGING	30-Jul-2015	10:48:23	9	2	125	NP	7	CMP300_7.bmp	Non-Target	I	2	40	H	9.999000	2	
7	DEBUGGING	30-Jul-2015	10:48:23	9	2	126	NP	3	CMP300_3.bmp	Non-Target	R	2	24	H	9.999000	2	
7	DEBUGGING	30-Jul-2015	10:48:23	9	2	127	NP	8	CMP300_8.bmp	Non-Target	I	1	32	H	9.999000	2	
7	DEBUGGING	30-Jul-2015	10:48:23	9	2	128	NP	1	CMP300_1.bmp	Non-Target	RRII	22	64	H	9.999000	2	
7	DEBUGGING	30-Jul-2015	10:48:23	9	2	129	NP	6	CMP300_6.bmp	Non-Target	R	1	16	H	9.999000	2	
7	DEBUGGING	30-Jul-2015	10:48:23	9	2	130	NP	9	CMP300_9.bmp	Target	T	0	8	H	9.999000	2	
7	DEBUGGING	30-Jul-2015	10:48:23	9	2	131	NP	8	CMP300_8.bmp	Non-Target	I	1	32	H	9.999000	2	
7	DEBUGGING	30-Jul-2015	10:48:23	9	2	132	NP	3	CMP300_3.bmp	Non-Target	R	2	24	H	9.999000	2	
7	DEBUGGING	30-Jul-2015	10:48:23	9	2	133	NP	9	CMP300_9.bmp	Target	T	0	8	H	9.999000	2	
7	DEBUGGING	30-Jul-2015	10:48:23	9	2	134	NP	3	CMP300_3.bmp	Non-Target	R	2	24	H	9.999000	2	
7	DEBUGGING	30-Jul-2015	10:48:24	9	2	135	NP	3	CMP300_3.bmp	Non-Target	R	2	24	H	9.999000	2	
7	DEBUGGING	30-Jul-2015	10:48:24	9	2	136	NP	1	CMP300_1.bmp	Non-Target	RRII	22	64	H	9.999000	2	
7	DEBUGGING	30-Jul-2015	10:48:24	9	2	137	NP	1	CMP300_1.bmp	Non-Target	RRII	22	64	H	9.999000	2	
7	DEBUGGING	30-Jul-2015	10:48:24	9	2	138	NP	9	CMP300_9.bmp	Target	T	0	8	H	9.999000	2	
7	DEBUGGING	30-Jul-2015	10:48:24	9	2	139	NP	6	CMP300_6.bmp	Non-Target	R	1	16	H	9.999000	2	
7	DEBUGGING	30-Jul-2015	10:48:24	9	2	140	NP	7	CMP300_7.bmp	Non-Target	I	2	40	H	9.999000	2	
7	DEBUGGING	30-Jul-2015	10:48:24	9	2	141	NP	8	CMP300_8.bmp	Non-Target	I	1	32	H	9.999000	2	
7	DEBUGGING	30-Jul-2015	10:48:24	9	2	142	NP	2	CMP300_2.bmp	Non-Target	RI	21	48	H	9.999000	2	
7	DEBUGGING	30-Jul-2015	10:48:24	9	2	143	NP	7	CMP300_7.bmp	Non-Target	I	2	40	H	9.999000	2	
7	DEBUGGING	30-Jul-2015	10:48:24	9	2	144	NP	9	CMP300_9.bmp	Target	T	0	8	H	9.999000	2	
7	DEBUGGING	30-Jul-2015	10:48:24	9	2	145	NP	9	CMP300_9.bmp	Target	T	0	8	H	9.999000	2	
7	DEBUGGING	30-Jul-2015	10:48:24	9	2	146	NP	6	CMP300_6.bmp	Non-Target	R	1	16	H	9.999000	2	
7	DEBUGGING	30-Jul-2015	10:48:24	9	2	147	NP	7	CMP300_7.bmp	Non-Target	I	2	40	H	9.999000	2	
7	DEBUGGING	30-Jul-2015	10:48:24	9	2	148	NP	3	CMP300_3.bmp	Non-Target	R	2	24	H	9.999000	2	
7	DEBUGGING	30-Jul-2015	10:48:24	9	2	149	NP	8	CMP300_8.bmp	Non-Target	I	1	32	H	9.999000	2	
7	DEBUGGING	30-Jul-2015	10:48:24	9	2	150	NP	6	CMP300_6.bmp	Non-Target	R	1	16	H	9.999000	2	
7	DEBUGGING	30-Jul-2015	10:48:24	9	2	151	NP	3	CMP300_3.bmp	Non-Target	R	2	24	H	9.999000	2	
7	DEBUGGING	30-Jul-2015	10:48:24	9	2	152	NP	7	CMP300_7.bmp	Non-Target	I	2	40	H	9.999000	2	
7	DEBUGGING	30-Jul-2015	10:48:24	9	2	153	NP	6	CMP300_6.bmp	Non-Target	R	1	16	H	9.999000	2	
7	DEBUGGING	30-Jul-2015	10:48:24	9	2	154	NP	9	CMP300_9.bmp	Target	T	0	8	H	9.999000	2	
7	DEBUGGING	30-Jul-2015	10:48:25	9	2	155	NP	9	CMP300_9.bmp	Target	T	0	8	H	9.999000	2	
7	DEBUGGING	30-Jul-2015	10:48:25	9	2	156	NP	7	CMP300_7.bmp	Non-Target	I	2	40	H	9.999000	2	
7	DEBUGGING	30-Jul-2015	10:48:25	9	2	157	NP	6	CMP300_6.bmp	Non-Target	R	1	16	H	9.999000	2	
7	DEBUGGING	30-Jul-2015	10:48:25	9	2	158	NP	3	CMP300_3.bmp	Non-Target	R	2	24	H	9.999000	2	
7	DEBUGGING	30-Jul-2015	10:48:25	9	2	159	NP	2	CMP300_2.bmp	Non-Target	RI	21	48	H	9.999000	2	
7	DEBUGGING	30-Jul-2015	10:48:25	9	2	160	NP	4	CMP300_4.bmp	Non-Target	IR	21	56	H	9.999000	2	
7	DEBUGGING	30-Jul-2015	10:48:25	9	2	161	NP	8	CMP300_8.bmp	Non-Target	I	1	32	H	9.999000	2	
7	DEBUGGING	30-Jul-2015	10:48:25	9	2	162	NP	6	CMP300_6.bmp	Non-Target	R	1	16	H	9.999000	2	
7	DEBUGGING	30-Jul-2015	10:48:25	9	2	163	NP	1	CMP300_1.bmp	Non-Target	RRII	22	64	H	9.999000	2	
7	DEBUGGING	30-Jul-2015	10:48:25	9	2	164	NP	1	CMP300_1.bmp	Non-Target	RRII	22	64	H	9.999000	2	
7	DEBUGGING	30-Jul-2015	10:48:25	9	2	165	NP	6	CMP300_6.bmp	Non-Target	R	1	16	H	9.999000	2	
7	DEBUGGING	30-Jul-2015	10:48:25	9	2	166	NP	3	CMP300_3.bmp	Non-Target	R	2	24	H	9.999000	2	
7	DEBUGGING	30-Jul-2015	10:48:25	9	2	167	NP	9	CMP300_9.bmp	Target	T	0	8	H	9.999000	2	
7	DEBUGGING	30-Jul-2015	10:48:25	9	2	168	NP	4	CMP300_4.bmp	Non-Target	IR	21	56	H	9.999000	2	
7	DEBUGGING	30-Jul-2015	10:48:25	9	2	169	NP	4	CMP300_4.bmp	Non-Target	IR	21	56	H	9.999000	2	
7	DEBUGGING	30-Jul-2015	10:48:25	9	2	170	NP	7	CMP300_7.bmp	Non-Target	I	2	40	H	9.999000	2	
7	DEBUGGING	30-Jul-2015	10:48:25	9	2	171	NP	6	CMP300_6.bmp	Non-Target	R	1	16	H	9.999000	2	
7	DEBUGGING	30-Jul-2015	10:48:25	9	2	172	NP	8	CMP300_8.bmp	Non-Target	I	1	32	H	9.999000	2	
7	DEBUGGING	30-Jul-2015	10:48:25	9	2	173	NP	7	CMP300_7.bmp	Non-Target	I	2	40	H	9.999000	2	
7	DEBUGGING	30-Jul-2015	10:48:25	9	2	174	NP	2	CMP300_2.bmp	Non-Target	RI	21	48	H	9.999000	2	
7	DEBUGGING	30-Jul-2015	10:48:26	9	2	175	NP	9	CMP300_9.bmp	Target	T	0	8	H	9.999000	2	
7	DEBUGGING	30-Jul-2015	10:48:26	9	2	176	NP	7	CMP300_7.bmp	Non-Target	I	2	40	H	9.999000	2	
7	DEBUGGING	30-Jul-2015	10:48:26	9	2	177	NP	1	CMP300_1.bmp	Non-Target	RRII	22	64	H	9.999000	2	
7	DEBUGGING	30-Jul-2015	10:48:26	9	2	178	NP	8	CMP300_8.bmp	Non-Target	I	1	32	H	9.999000	2	
7	DEBUGGING	30-Jul-2015	10:48:26	9	2	179	NP	7	CMP300_7.bmp	Non-Target	I	2	40	H	9.999000	2	
7	DEBUGGING	30-Jul-2015	10:48:26	9	2	180	NP	1	CMP300_1.bmp	Non-Target	RRII	22	64	H	9.999000	2	
7	DEBUGGING	30-Jul-2015	10:48:26	9	2	181	NP	3	CMP300_3.bmp	Non-Target	R	2	24	H	9.999000	2	
7	DEBUGGING	30-Jul-2015	10:48:26	9	2	182	NP	1	CMP300_1.bmp	Non-Target	RRII	22	64	H	9.999000	2	
7	DEBUGGING	30-Jul-2015	10:48:26	9	2	183	NP	2	CMP300_2.bmp	Non-Target	RI	21	48	H	9.999000	2	
7	DEBUGGING	30-Jul-2015	10:48:26	9	2	184	NP	8	CMP300_8.bmp	Non-Target	I	1	32	H	9.999000	2	
7	DEBUGGING	30-Jul-2015	10:48:26	9	2	185	NP	2	CMP300_2.bmp	Non-Target	RI	21	48	H	9.999000	2	
7	DEBUGGING	30-Jul-2015	10:48:26	9	2	186	NP	3	CMP300_3.bmp	Non-Target	R	2	24	H	9.999000	2	
7	DEBUGGING	30-Jul-2015	10:48:26	9	2	187	NP	4	CMP300_4.bmp	Non-Target	IR	21	56	H	9.999000	2	
7	DEBUGGING	30-Jul-2015	10:48:26	9	2	188	NP	8	CMP300_8.bmp	Non-Target	I	1	32	H	9.999000	2	
7	DEBUGGING	30-Jul-2015	10:48:26	9	2	189	NP	7	CMP300_7.bmp	Non-Target	I	2	40	H	9.999000	2	
7	DEBUGGING	30-Jul-2015	10:48:26	9	2	190	NP	9	CMP300_9.bmp	Target	T	0	8	H	9.999000	2	
7	DEBUGGING	30-Jul-2015	10:48:26	9	2	191	NP	7	CMP300_7.bmp	Non-Target	I	2	40	H	9.999000	2	
7	DEBUGGING	30-Jul-2015	10:48:26	9	2	192	NP	4	CMP300_4.bmp	Non-Target	IR	21	56	H	9.999000	2	
7	DEBUGGING	30-Jul-2015	10:48:26	9	2	193	NP	6	CMP300_6.bmp	Non-Target	R	1	16	H	9.999000	2	
7	DEBUGGING	30-Jul-2015	10:48:27	9	2	194	NP	9	CMP300_9.bmp	Target	T	0	8	H	9.999000	2	
7	DEBUGGING	30-Jul-2015	10:48:27	9	2	195	NP	7	CMP300_7.bmp	Non-Target	I	2	40	H	9.999000	2	
7	DEBUGGING	30-Jul-2015	10:48:27	9	2	196	NP	9	CMP300_9.bmp	Target	T	0	8	H	9.999000	2	
7	DEBUGGING	30-Jul-2015	10:48:27	9	2	197	NP	2	CMP300_2.bmp	Non-Target	RI	21	48	H	9.999000	2	
7	DEBUGGING	30-Jul-2015	10:48:27	9	2	198	NP	4	CMP300_4.bmp	Non-Target	IR	21	56	H	9.999000	2	
7	DEBUGGING	30-Jul-2015	10:48:27	9	2	199	NP	8	CMP300_8.bmp	Non-Target	I	1	32	H	9.999000	2	
7	DEBUGGING	30-Jul-2015	10:48:27	9	2	200	NP	1	CMP300_1.bmp	Non-Target	RRII	22	64	H	9.999000	2	
7	DEBUGGING	30-Jul-2015	10:48:27	9	2	201	NP	3	CMP300_3.bmp	Non-Target	R	2	24	H	9.999000	2	
7	DEBUGGING	30-Jul-2015	10:48:27	9	2	202	NP	4	CMP300_4.bmp	Non-Target	IR	21	56	H	9.999000	2	
7	DEBUGGING	30-Jul-2015	10:48:27	9	2	203	NP	6	CMP300_6.bmp	Non-Target	R	1	16	H	9.999000	2	
7	DEBUGGING	30-Jul-2015	10:48:27	9	2	204	NP	9	CMP300_9.bmp	Target	T	0	8	H	9.999000	2	
7	DEBUGGING	30-Jul-2015	10:48:27	9	2	205	NP	8	CMP300_8.bmp	Non-Target	I	1	32	H	9.999000	2	
7	DEBUGGING	30-Jul-2015	10:48:27	9	2	206	NP	8	CMP300_8.bmp	Non-Target	I	1	32	H	9.999000	2	
7	DEBUGGING	30-Jul-2015	10:48:27	9	2	207	NP	7	CMP300_7.bmp	Non-Target	I	2	40	H	9.999000	2	
7	DEBUGGING	30-Jul-2015	10:48:27	9	2	208	NP	9	CMP300_9.bmp	Target	T	0	8	H	9.999000	2	
7	DEBUGGING	30-Jul-2015	10:48:27	9	2	209	NP	3	CMP300_3.bmp	Non-Target	R	2	24	H	9.999000	2	
7	DEBUGGING	30-Jul-2015	10:48:27	9	2	210	NP	6	CMP300_6.bmp	Non-Target	R	1	16	H	9.999000	2	
7	DEBUGGING	30-Jul-2015	10:48:27	9	2	211	NP	8	CMP300_8.bmp	Non-Target	I	1	32	H	9.999000	2	
7	DEBUGGING	30-Jul-2015	10:48:27	9	2	212	NP	4	CMP300_4.bmp	Non-Target	IR	21	56	H	9.999000	2	
7	DEBUGGING	30-Jul-2015	10:48:27	9	2	213	NP	1	CMP300_1.bmp	Non-Target	RRII	22	64	H	9.999000	2	
7	DEBUGGING	30-Jul-2015	10:48:28	9	2	214	NP	9	CMP300_9.bmp	Target	T	0	8	H	9.999000	2	
7	DEBUGGING	30-Jul-2015	10:48:28	9	2	215	NP	8	CMP300_8.bmp	Non-Target	I	1	32	H	9.999000	2	
7	DEBUGGING	30-Jul-2015	10:48:28	9	2	216	NP	2	CMP300_2.bmp	Non-Target	RI	21	48	H	9.999000	2	
7	DEBUGGING	30-Jul-2015	10:48:28	9	2	217	NP	6	CMP300_6.bmp	Non-Target	R	1	16	H	9.999000	2	
7	DEBUGGING	30-Jul-2015	10:48:28	9	2	218	NP	6	CMP300_6.bmp	Non-Target	R	1	16	H	9.999000	2	
7	DEBUGGING	30-Jul-2015	10:48:28	9	2	219	NP	4	CMP300_4.bmp	Non-Target	IR	21	56	H	9.999000	2	
7	DEBUGGING	30-Jul-2015	10:48:28	9	2	220	NP	4	CMP300_4.bmp	Non-Target	IR	21	56	H	9.999000	2	
7	DEBUGGING	30-Jul-2015	10:48:28	9	2	221	NP	3	CMP300_3.bmp	Non-Target	R	2	24	H	9.999000	2	
7	DEBUGGING	30-Jul-2015	10:48:28	9	2	222	NP	6	CMP300_6.bmp	Non-Target	R	1	16	H	9.999000	2	
7	DEBUGGING	30-Jul-2015	10:48:28	9	2	223	NP	9	CMP300_9.bmp	Target	T	0	8	H	9.999000	2	
7	DEBUGGING	30-Jul-2015	10:48:28	9	2	224	NP	2	CMP300_2.bmp	Non-Target	RI	21	48	H	9.999000	2	
7	DEBUGGING	30-Jul-2015	10:48:28	9	2	225	NP	9	CMP300_9.bmp	Target	T	0	8	H	9.999000	2	
7	DEBUGGING	30-Jul-2015	10:48:28	9	2	226	NP	1	CMP300_1.bmp	Non-Target	RRII	22	64	H	9.999000	2	
7	DEBUGGING	30-Jul-2015	10:48:28	9	2	227	NP	2	CMP300_2.bmp	Non-Target	RI	21	48	H	9.999000	2	
7	DEBUGGING	30-Jul-2015	10:48:28	9	2	228	NP	6	CMP300_6.bmp	Non-Target	R	1	16	H	9.999000	2	
7	DEBUGGING	30-Jul-2015	10:48:28	9	2	229	NP	2	CMP300_2.bmp	Non-Target	RI	21	48	H	9.999000	2	
7	DEBUGGING	30-Jul-2015	10:48:28	9	2	230	NP	7	CMP300_7.bmp	Non-Target	I	2	40	H	9.999000	2	
7	DEBUGGING	30-Jul-2015	10:48:28	9	2	231	NP	4	CMP300_4.bmp	Non-Target	IR	21	56	H	9.999000	2	
7	DEBUGGING	30-Jul-2015	10:48:28	9	2	232	NP	2	CMP300_2.bmp	Non-Target	RI	21	48	H	9.999000	2	
7	DEBUGGING	30-Jul-2015	10:48:28	9	2	233	NP	4	CMP300_4.bmp	Non-Target	IR	21	56	H	9.999000	2	
7	DEBUGGING	30-Jul-2015	10:48:29	9	2	234	NP	4	CMP300_4.bmp	Non-Target	IR	21	56	H	9.999000	2	
7	DEBUGGING	30-Jul-2015	10:48:29	9	2	235	NP	3	CMP300_3.bmp	Non-Target	R	2	24	H	9.999000	2	
7	DEBUGGING	30-Jul-2015	10:48:29	9	2	236	NP	1	CMP300_1.bmp	Non-Target	RRII	22	64	H	9.999000	2	
7	DEBUGGING	30-Jul-2015	10:48:29	9	2	237	NP	7	CMP300_7.bmp	Non-Target	I	2	40	H	9.999000	2	
7	DEBUGGING	30-Jul-2015	10:48:29	9	2	238	NP	4	CMP300_4.bmp	Non-Target	IR	21	56	H	9.999000	2	
7	DEBUGGING	30-Jul-2015	10:48:29	9	2	239	NP	6	CMP300_6.bmp	Non-Target	R	1	16	H	9.999000	2	
7	DEBUGGING	30-Jul-2015	10:48:29	9	2	240	NP	7	CMP300_7.bmp	Non-Target	I	2	40	H	9.999000	2	
7	DEBUGGING	30-Jul-2015	10:48:29	9	2	241	NP	4	CMP300_4.bmp	Non-Target	IR	21	56	H	9.999000	2	
7	DEBUGGING	30-Jul-2015	10:48:29	9	2	242	NP	2	CMP300_2.bmp	Non-Target	RI	21	48	H	9.999000	2	
7	DEBUGGING	30-Jul-2015	10:48:29	9	2	243	NP	4	CMP300_4.bmp	Non-Target	IR	21	56	H	9.999000	2	
7	DEBUGGING	30-Jul-2015	10:48:29	9	2	244	NP	9	CMP300_9.bmp	Target	T	0	8	H	9.999000	2	
7	DEBUGGING	30-Jul-2015	10:48:29	9	2	245	NP	4	CMP300_4.bmp	Non-Target	IR	21	56	H	9.999000	2	
7	DEBUGGING	30-Jul-2015	10:48:29	9	2	246	NP	3	CMP300_3.bmp	Non-Target	R	2	24	H	9.999000	2	
7	DEBUGGING	30-Jul-2015	10:48:29	9	2	247	NP	6	CMP300_6.bmp	Non-Target	R	1	16	H	9.999000	2	
7	DEBUGGING	30-Jul-2015	10:48:29	9	2	248	NP	3	CMP300_3.bmp	Non-Target	R	2	24	H	9.999000	2	
7	DEBUGGING	30-Jul-2015	10:48:29	9	2	249	NP	1	CMP300_1.bmp	Non-Target	RRII	22	64	H	9.999000	2	
7	DEBUGGING	30-Jul-2015	10:48:29	9	2	250	NP	2	CMP300_2.bmp	Non-Target	RI	21	48	H	9.999000	2	
7	DEBUGGING	30-Jul-2015	10:48:29	9	2	251	NP	1	CMP300_1.bmp	Non-Target	RRII	22	64	H	9.999000	2	
7	DEBUGGING	30-Jul-2015	10:48:29	9	2	252	NP	9	CMP300_9.bmp	Target	T	0	8	H	9.999000	2	
7	DEBUGGING	30-Jul-2015	10:48:29	9	2	253	NP	8	CMP300_8.bmp	Non-Target	I	1	32	H	9.999000	2	
7	DEBUGGING	30-Jul-2015	10:48:30	9	2	254	NP	7	CMP300_7.bmp	Non-Target	I	2	40	H	9.999000	2	
7	DEBUGGING	30-Jul-2015	10:48:30	9	2	255	NP	6	CMP300_6.bmp	Non-Target	R	1	16	H	9.999000	2	
7	DEBUGGING	30-Jul-2015	10:48:30	9	2	256	NP	2	CMP300_2.bmp	Non-Target	RI	21	48	H	9.999000	2	
7	DEBUGGING	30-Jul-2015	10:48:30	9	2	257	NP	4	CMP300_4.bmp	Non-Target	IR	21	56	H	9.999000	2	
7	DEBUGGING	30-Jul-2015	10:48:30	9	2	258	NP	1	CMP300_1.bmp	Non-Target	RRII	22	64	H	9.999000	2	
7	DEBUGGING	30-Jul-2015	10:48:30	9	2	259	NP	6	CMP300_6.bmp	Non-Target	R	1	16	H	9.999000	2	
7	DEBUGGING	30-Jul-2015	10:48:30	9	2	260	NP	2	CMP300_2.bmp	Non-Target	RI	21	48	H	9.999000	2	
7	DEBUGGING	30-Jul-2015	10:48:30	9	2	261	NP	4	CMP300_4.bmp	Non-Target	IR	21	56	H	9.999000	2	
7	DEBUGGING	30-Jul-2015	10:48:30	9	2	262	NP	1	CMP300_1.bmp	Non-Target	RRII	22	64	H	9.999000	2	
7	DEBUGGING	30-Jul-2015	10:48:30	9	2	263	NP	7	CMP300_7.bmp	Non-Target	I	2	40	H	9.999000	2	
7	DEBUGGING	30-Jul-2015	10:48:30	9	2	264	NP	3	CMP300_3.bmp	Non-Target	R	2	24	H	9.999000	2	
7	DEBUGGING	30-Jul-2015	10:48:30	9	2	265	NP	2	CMP300_2.bmp	Non-Target	RI	21	48	H	9.999000	2	
7	DEBUGGING	30-Jul-2015	10:48:30	9	2	266	NP	2	CMP300_2.bmp	Non-Target	RI	21	48	H	9.999000	2	
7	DEBUGGING	30-Jul-2015	10:48:30	9	2	267	NP	2	CMP300_2.bmp	Non-Target	RI	21	48	H	9.999000	2	
7	DEBUGGING	30-Jul-2015	10:48:30	9	2	268	NP	1	CMP300_1.bmp	Non-Target	RRII	22	64	H	9.999000	2	
7	DEBUGGING	30-Jul-2015	10:48:30	9	2	269	NP	1	CMP300_1.bmp	Non-Target	RRII	22	64	H	9.999000	2	
7	DEBUGGING	30-Jul-2015	10:48:30	9	2	270	NP	3	CMP300_3.bmp	Non-Target	R	2	24	H	9.999000	2	
7	DEBUGGING	30-Jul-2015	10:48:30	9	2	271	NP	9	CMP300_9.bmp	Target	T	0	8	H	9.999000	2	
7	DEBUGGING	30-Jul-2015	10:48:30	9	2	272	NP	4	CMP300_4.bmp	Non-Target	IR	21	56	H	9.999000	2	
7	DEBUGGING	30-Jul-2015	10:48:30	9	2	273	NP	8	CMP300_8.bmp	Non-Target	I	1	32	H	9.999000	2	
7	DEBUGGING	30-Jul-2015	10:48:31	9	2	274	NP	3	CMP300_3.bmp	Non-Target	R	2	24	H	9.999000	2	
7	DEBUGGING	30-Jul-2015	10:48:31	9	2	275	NP	6	CMP300_6.bmp	Non-Target	R	1	16	H	9.999000	2	
7	DEBUGGING	30-Jul-2015	10:48:31	9	2	276	NP	9	CMP300_9.bmp	Target	T	0	8	H	9.999000	2	
7	DEBUGGING	30-Jul-2015	10:48:31	9	2	277	NP	8	CMP300_8.bmp	Non-Target	I	1	32	H	9.999000	2	
7	DEBUGGING	30-Jul-2015	10:48:31	9	2	278	NP	7	CMP300_7.bmp	Non-Target	I	2	40	H	9.999000	2	
7	DEBUGGING	30-Jul-2015	10:48:31	9	2	279	NP	1	CMP300_1.bmp	Non-Target	RRII	22	64	H	9.999000	2	
7	DEBUGGING	30-Jul-2015	10:48:31	9	2	280	NP	8	CMP300_8.bmp	Non-Target	I	1	32	H	9.999000	2	
7	DEBUGGING	30-Jul-2015	10:48:31	9	2	281	NP	9	CMP300_9.bmp	Target	T	0	8	H	9.999000	2	
7	DEBUGGING	30-Jul-2015	10:48:31	9	2	282	NP	7	CMP300_7.bmp	Non-Target	I	2	40	H	9.999000	2	
7	DEBUGGING	30-Jul-2015	10:48:31	9	2	283	NP	4	CMP300_4.bmp	Non-Target	IR	21	56	H	9.999000	2	
7	DEBUGGING	30-Jul-2015	10:48:31	9	2	284	NP	6	CMP300_6.bmp	Non-Target	R	1	16	H	9.999000	2	
7	DEBUGGING	30-Jul-2015	10:48:31	9	2	285	NP	9	CMP300_9.bmp	Target	T	0	8	H	9.999000	2	
7	DEBUGGING	30-Jul-2015	10:48:31	9	2	286	NP	7	CMP300_7.bmp	Non-Target	I	2	40	H	9.999000	2	
7	DEBUGGING	30-Jul-2015	10:48:31	9	2	287	NP	7	CMP300_7.bmp	Non-Target	I	2	40	H	9.999000	2	
7	DEBUGGING	30-Jul-2015	10:48:31	9	2	288	NP	8	CMP300_8.bmp	Non-Target	I	1	32	H	9.999000	2	
7	DEBUGGING	30-Jul-2015	10:48:31	9	2	289	NP	7	CMP300_7.bmp	Non-Target	I	2	40	H	9.999000	2	
7	DEBUGGING	30-Jul-2015	10:48:31	9	2	290	NP	9	CMP300_9.bmp	Target	T	0	8	H	9.999000	2	
7	DEBUGGING	30-Jul-2015	10:48:31	9	2	291	NP	3	CMP300_3.bmp	Non-Target	R	2	24	H	9.999000	2	
7	DEBUGGING	30-Jul-2015	10:48:31	9	2	292	NP	2	CMP300_2.bmp	Non-Target	RI	21	48	H	9.999000	2	
7	DEBUGGING	30-Jul-2015	10:48:31	9	2	293	NP	3	CMP300_3.bmp	Non-Target	R	2	24	H	9.999000	2	
7	DEBUGGING	30-Jul-2015	10:48:32	9	2	294	NP	6	CMP300_6.bmp	Non-Target	R	1	16	H	9.999000	2	
7	DEBUGGING	30-Jul-2015	10:48:32	9	2	295	NP	4	CMP300_4.bmp	Non-Target	IR	21	56	H	9.999000	2	
7	DEBUGGING	30-Jul-2015	10:48:32	9	2	296	NP	9	CMP300_9.bmp	Target	T	0	8	H	9.999000	2	
7	DEBUGGING	30-Jul-2015	10:48:32	9	2	297	NP	3	CMP300_3.bmp	Non-Target	R	2	24	H	9.999000	2	
7	DEBUGGING	30-Jul-2015	10:48:32	9	3	1	NP	9	CMP300_9.bmp	Target	T	0	8	H	9.999000	2	
7	DEBUGGING	30-Jul-2015	10:48:32	9	3	2	NP	1	CMP300_1.bmp	Non-Target	RRII	22	64	H	9.999000	2	
7	DEBUGGING	30-Jul-2015	10:48:32	9	3	3	NP	1	CMP300_1.bmp	Non-Target	RRII	22	64	H	9.999000	2	
7	DEBUGGING	30-Jul-2015	10:48:32	9	3	4	NP	6	CMP300_6.bmp	Non-Target	R	1	16	H	9.999000	2	
7	DEBUGGING	30-Jul-2015	10:48:32	9	3	5	NP	3	CMP300_3.bmp	Non-Target	R	2	24	H	9.999000	2	
7	DEBUGGING	30-Jul-2015	10:48:32	9	3	6	NP	7	CMP300_7.bmp	Non-Target	I	2	40	H	9.999000	2	
7	DEBUGGING	30-Jul-2015	10:48:32	9	3	7	NP	9	CMP300_9.bmp	Target	T	0	8	H	9.999000	2	
7	DEBUGGING	30-Jul-2015	10:48:32	9	3	8	NP	3	CMP300_3.bmp	Non-Target	R	2	24	H	9.999000	2	
7	DEBUGGING	30-Jul-2015	10:48:32	9	3	9	NP	2	CMP300_2.bmp	Non-Target	RI	21	48	H	9.999000	2	
7	DEBUGGING	30-Jul-2015	10:48:32	9	3	10	NP	2	CMP300_2.bmp	Non-Target	RI	21	48	H	9.999000	2	
7	DEBUGGING	30-Jul-2015	10:48:32	9	3	11	NP	8	CMP300_8.bmp	Non-Target	I	1	32	H	9.999000	2	
7	DEBUGGING	30-Jul-2015	10:48:32	9	3	12	NP	9	CMP300_9.bmp	Target	T	0	8	H	9.999000	2	
7	DEBUGGING	30-Jul-2015	10:48:32	9	3	13	NP	2	CMP300_2.bmp	Non-Target	RI	21	48	H	9.999000	2	
7	DEBUGGING	30-Jul-2015	10:48:32	9	3	14	NP	8	CMP300_8.bmp	Non-Target	I	1	32	H	9.999000	2	
7	DEBUGGING	30-Jul-2015	10:48:33	9	3	15	NP	3	CMP300_3.bmp	Non-Target	R	2	24	H	9.999000	2	
7	DEBUGGING	30-Jul-2015	10:48:33	9	3	16	NP	4	CMP300_4.bmp	Non-Target	IR	21	56	H	9.999000	2	
7	DEBUGGING	30-Jul-2015	10:48:33	9	3	17	NP	7	CMP300_7.bmp	Non-Target	I	2	40	H	9.999000	2	
7	DEBUGGING	30-Jul-2015	10:48:33	9	3	18	NP	9	CMP300_9.bmp	Target	T	0	8	H	9.999000	2	
7	DEBUGGING	30-Jul-2015	10:48:33	9	3	19	NP	3	CMP300_3.bmp	Non-Target	R	2	24	H	9.999000	2	
7	DEBUGGING	30-Jul-2015	10:48:33	9	3	20	NP	1	CMP300_1.bmp	Non-Target	RRII	22	64	H	9.999000	2	
7	DEBUGGING	30-Jul-2015	10:48:33	9	3	21	NP	3	CMP300_3.bmp	Non-Target	R	2	24	H	9.999000	2	
7	DEBUGGING	30-Jul-2015	10:48:33	9	3	22	NP	9	CMP300_9.bmp	Target	T	0	8	H	9.999000	2	
7	DEBUGGING	30-Jul-2015	10:48:33	9	3	23	NP	6	CMP300_6.bmp	Non-Target	R	1	16	H	9.999000	2	
7	DEBUGGING	30-Jul-2015	10:48:33	9	3	24	NP	9	CMP300_9.bmp	Target	T	0	8	H	9.999000	2	
7	DEBUGGING	30-Jul-2015	10:48:33	9	3	25	NP	2	CMP300_2.bmp	Non-Target	RI	21	48	H	9.999000	2	
7	DEBUGGING	30-Jul-2015	10:48:33	9	3	26	NP	8	CMP300_8.bmp	Non-Target	I	1	32	H	9.999000	2	
7	DEBUGGING	30-Jul-2015	10:48:33	9	3	27	NP	7	CMP300_7.bmp	Non-Target	I	2	40	H	9.999000	2	
7	DEBUGGING	30-Jul-2015	10:48:33	9	3	28	NP	9	CMP300_9.bmp	Target	T	0	8	H	9.999000	2	
7	DEBUGGING	30-Jul-2015	10:48:33	9	3	29	NP	4	CMP300_4.bmp	Non-Target	IR	21	56	H	9.999000	2	
7	DEBUGGING	30-Jul-2015	10:48:33	9	3	30	NP	8	CMP300_8.bmp	Non-Target	I	1	32	H	9.999000	2	
7	DEBUGGING	30-Jul-2015	10:48:33	9	3	31	NP	9	CMP300_9.bmp	Target	T	0	8	H	9.999000	2	
7	DEBUGGING	30-Jul-2015	10:48:33	9	3	32	NP	7	CMP300_7.bmp	Non-Target	I	2	40	H	9.999000	2	
7	DEBUGGING	30-Jul-2015	10:48:33	9	3	33	NP	1	CMP300_1.bmp	Non-Target	RRII	22	64	H	9.999000	2	
7	DEBUGGING	30-Jul-2015	10:48:33	9	3	34	NP	4	CMP300_4.bmp	Non-Target	IR	21	56	H	9.999000	2	
7	DEBUGGING	30-Jul-2015	10:48:34	9	3	35	NP	6	CMP300_6.bmp	Non-Target	R	1	16	H	9.999000	2	
7	DEBUGGING	30-Jul-2015	10:48:34	9	3	36	NP	8	CMP300_8.bmp	Non-Target	I	1	32	H	9.999000	2	
7	DEBUGGING	30-Jul-2015	10:48:34	9	3	37	NP	3	CMP300_3.bmp	Non-Target	R	2	24	H	9.999000	2	
7	DEBUGGING	30-Jul-2015	10:48:34	9	3	38	NP	2	CMP300_2.bmp	Non-Target	RI	21	48	H	9.999000	2	
7	DEBUGGING	30-Jul-2015	10:48:34	9	3	39	NP	7	CMP300_7.bmp	Non-Target	I	2	40	H	9.999000	2	
7	DEBUGGING	30-Jul-2015	10:48:34	9	3	40	NP	4	CMP300_4.bmp	Non-Target	IR	21	56	H	9.999000	2	
7	DEBUGGING	30-Jul-2015	10:48:34	9	3	41	NP	6	CMP300_6.bmp	Non-Target	R	1	16	H	9.999000	2	
7	DEBUGGING	30-Jul-2015	10:48:34	9	3	42	NP	1	CMP300_1.bmp	Non-Target	RRII	22	64	H	9.999000	2	
7	DEBUGGING	30-Jul-2015	10:48:34	9	3	43	NP	3	CMP300_3.bmp	Non-Target	R	2	24	H	9.999000	2	
7	DEBUGGING	30-Jul-2015	10:48:34	9	3	44	NP	4	CMP300_4.bmp	Non-Target	IR	21	56	H	9.999000	2	
7	DEBUGGING	30-Jul-2015	10:48:34	9	3	45	NP	7	CMP300_7.bmp	Non-Target	I	2	40	H	9.999000	2	
7	DEBUGGING	30-Jul-2015	10:48:34	9	3	46	NP	4	CMP300_4.bmp	Non-Target	IR	21	56	H	9.999000	2	
7	DEBUGGING	30-Jul-2015	10:48:34	9	3	47	NP	4	CMP300_4.bmp	Non-Target	IR	21	56	H	9.999000	2	
7	DEBUGGING	30-Jul-2015	10:48:34	9	3	48	NP	8	CMP300_8.bmp	Non-Target	I	1	32	H	9.999000	2	
7	DEBUGGING	30-Jul-2015	10:48:34	9	3	49	NP	4	CMP300_4.bmp	Non-Target	IR	21	56	H	9.999000	2	
7	DEBUGGING	30-Jul-2015	10:48:34	9	3	50	NP	6	CMP300_6.bmp	Non-Target	R	1	16	H	9.999000	2	
7	DEBUGGING	30-Jul-2015	10:48:34	9	3	51	NP	2	CMP300_2.bmp	Non-Target	RI	21	48	H	9.999000	2	
7	DEBUGGING	30-Jul-2015	10:48:34	9	3	52	NP	2	CMP300_2.bmp	Non-Target	RI	21	48	H	9.999000	2	
7	DEBUGGING	30-Jul-2015	10:48:34	9	3	53	NP	9	CMP300_9.bmp	Target	T	0	8	H	9.999000	2	
7	DEBUGGING	30-Jul-2015	10:48:34	9	3	54	NP	9	CMP300_9.bmp	Target	T	0	8	H	9.999000	2	
7	DEBUGGING	30-Jul-2015	10:48:35	9	3	55	NP	8	CMP300_8.bmp	Non-Target	I	1	32	H	9.999000	2	
7	DEBUGGING	30-Jul-2015	10:48:35	9	3	56	NP	4	CMP300_4.bmp	Non-Target	IR	21	56	H	9.999000	2	
7	DEBUGGING	30-Jul-2015	10:48:35	9	3	57	NP	8	CMP300_8.bmp	Non-Target	I	1	32	H	9.999000	2	
7	DEBUGGING	30-Jul-2015	10:48:35	9	3	58	NP	2	CMP300_2.bmp	Non-Target	RI	21	48	H	9.999000	2	
7	DEBUGGING	30-Jul-2015	10:48:35	9	3	59	NP	4	CMP300_4.bmp	Non-Target	IR	21	56	H	9.999000	2	
7	DEBUGGING	30-Jul-2015	10:48:35	9	3	60	NP	9	CMP300_9.bmp	Target	T	0	8	H	9.999000	2	
7	DEBUGGING	30-Jul-2015	10:48:35	9	3	61	NP	9	CMP300_9.bmp	Target	T	0	8	H	9.999000	2	
7	DEBUGGING	30-Jul-2015	10:48:35	9	3	62	NP	8	CMP300_8.bmp	Non-Target	I	1	32	H	9.999000	2	
7	DEBUGGING	30-Jul-2015	10:48:35	9	3	63	NP	4	CMP300_4.bmp	Non-Target	IR	21	56	H	9.999000	2	
7	DEBUGGING	30-Jul-2015	10:48:35	9	3	64	NP	9	CMP300_9.bmp	Target	T	0	8	H	9.999000	2	
7	DEBUGGING	30-Jul-2015	10:48:35	9	3	65	NP	8	CMP300_8.bmp	Non-Target	I	1	32	H	9.999000	2	
7	DEBUGGING	30-Jul-2015	10:48:35	9	3	66	NP	1	CMP300_1.bmp	Non-Target	RRII	22	64	H	9.999000	2	
7	DEBUGGING	30-Jul-2015	10:48:35	9	3	67	NP	6	CMP300_6.bmp	Non-Target	R	1	16	H	9.999000	2	
7	DEBUGGING	30-Jul-2015	10:48:35	9	3	68	NP	7	CMP300_7.bmp	Non-Target	I	2	40	H	9.999000	2	
7	DEBUGGING	30-Jul-2015	10:48:35	9	3	69	NP	2	CMP300_2.bmp	Non-Target	RI	21	48	H	9.999000	2	
7	DEBUGGING	30-Jul-2015	10:48:35	9	3	70	NP	7	CMP300_7.bmp	Non-Target	I	2	40	H	9.999000	2	
7	DEBUGGING	30-Jul-2015	10:48:35	9	3	71	NP	9	CMP300_9.bmp	Target	T	0	8	H	9.999000	2	
7	DEBUGGING	30-Jul-2015	10:48:35	9	3	72	NP	3	CMP300_3.bmp	Non-Target	R	2	24	H	9.999000	2	
7	DEBUGGING	30-Jul-2015	10:48:35	9	3	73	NP	4	CMP300_4.bmp	Non-Target	IR	21	56	H	9.999000	2	
7	DEBUGGING	30-Jul-2015	10:48:35	9	3	74	NP	4	CMP300_4.bmp	Non-Target	IR	21	56	H	9.999000	2	
7	DEBUGGING	30-Jul-2015	10:48:36	9	3	75	NP	9	CMP300_9.bmp	Target	T	0	8	H	9.999000	2	
7	DEBUGGING	30-Jul-2015	10:48:36	9	3	76	NP	3	CMP300_3.bmp	Non-Target	R	2	24	H	9.999000	2	
7	DEBUGGING	30-Jul-2015	10:48:36	9	3	77	NP	6	CMP300_6.bmp	Non-Target	R	1	16	H	9.999000	2	
7	DEBUGGING	30-Jul-2015	10:48:36	9	3	78	NP	1	CMP300_1.bmp	Non-Target	RRII	22	64	H	9.999000	2	
7	DEBUGGING	30-Jul-2015	10:48:36	9	3	79	NP	4	CMP300_4.bmp	Non-Target	IR	21	56	H	9.999000	2	
7	DEBUGGING	30-Jul-2015	10:48:36	9	3	80	NP	9	CMP300_9.bmp	Target	T	0	8	H	9.999000	2	
7	DEBUGGING	30-Jul-2015	10:48:36	9	3	81	NP	7	CMP300_7.bmp	Non-Target	I	2	40	H	9.999000	2	
7	DEBUGGING	30-Jul-2015	10:48:36	9	3	82	NP	9	CMP300_9.bmp	Target	T	0	8	H	9.999000	2	
7	DEBUGGING	30-Jul-2015	10:48:36	9	3	83	NP	6	CMP300_6.bmp	Non-Target	R	1	16	H	9.999000	2	
7	DEBUGGING	30-Jul-2015	10:48:36	9	3	84	NP	1	CMP300_1.bmp	Non-Target	RRII	22	64	H	9.999000	2	
7	DEBUGGING	30-Jul-2015	10:48:36	9	3	85	NP	6	CMP300_6.bmp	Non-Target	R	1	16	H	9.999000	2	
7	DEBUGGING	30-Jul-2015	10:48:36	9	3	86	NP	3	CMP300_3.bmp	Non-Target	R	2	24	H	9.999000	2	
7	DEBUGGING	30-Jul-2015	10:48:36	9	3	87	NP	1	CMP300_1.bmp	Non-Target	RRII	22	64	H	9.999000	2	
7	DEBUGGING	30-Jul-2015	10:48:36	9	3	88	NP	9	CMP300_9.bmp	Target	T	0	8	H	9.999000	2	
7	DEBUGGING	30-Jul-2015	10:48:36	9	3	89	NP	2	CMP300_2.bmp	Non-Target	RI	21	48	H	9.999000	2	
7	DEBUGGING	30-Jul-2015	10:48:36	9	3	90	NP	1	CMP300_1.bmp	Non-Target	RRII	22	64	H	9.999000	2	
7	DEBUGGING	30-Jul-2015	10:48:36	9	3	91	NP	3	CMP300_3.bmp	Non-Target	R	2	24	H	9.999000	2	
7	DEBUGGING	30-Jul-2015	10:48:36	9	3	92	NP	1	CMP300_1.bmp	Non-Target	RRII	22	64	H	9.999000	2	
7	DEBUGGING	30-Jul-2015	10:48:36	9	3	93	NP	6	CMP300_6.bmp	Non-Target	R	1	16	H	9.999000	2	
7	DEBUGGING	30-Jul-2015	10:48:36	9	3	94	NP	6	CMP300_6.bmp	Non-Target	R	1	16	H	9.999000	2	
7	DEBUGGING	30-Jul-2015	10:48:37	9	3	95	NP	3	CMP300_3.bmp	Non-Target	R	2	24	H	9.999000	2	
7	DEBUGGING	30-Jul-2015	10:48:37	9	3	96	NP	3	CMP300_3.bmp	Non-Target	R	2	24	H	9.999000	2	
7	DEBUGGING	30-Jul-2015	10:48:37	9	3	97	NP	6	CMP300_6.bmp	Non-Target	R	1	16	H	9.999000	2	
7	DEBUGGING	30-Jul-2015	10:48:37	9	3	98	NP	4	CMP300_4.bmp	Non-Target	IR	21	56	H	9.999000	2	
7	DEBUGGING	30-Jul-2015	10:48:37	9	3	99	NP	9	CMP300_9.bmp	Target	T	0	8	H	9.999000	2	
7	DEBUGGING	30-Jul-2015	10:48:37	9	3	100	NP	7	CMP300_7.bmp	Non-Target	I	2	40	H	9.999000	2	
7	DEBUGGING	30-Jul-2015	10:48:37	9	3	101	NP	3	CMP300_3.bmp	Non-Target	R	2	24	H	9.999000	2	
7	DEBUGGING	30-Jul-2015	10:48:37	9	3	102	NP	2	CMP300_2.bmp	Non-Target	RI	21	48	H	9.999000	2	
7	DEBUGGING	30-Jul-2015	10:48:37	9	3	103	NP	3	CMP300_3.bmp	Non-Target	R	2	24	H	9.999000	2	
7	DEBUGGING	30-Jul-2015	10:48:37	9	3	104	NP	3	CMP300_3.bmp	Non-Target	R	2	24	H	9.999000	2	
7	DEBUGGING	30-Jul-2015	10:48:37	9	3	105	NP	7	CMP300_7.bmp	Non-Target	I	2	40	H	9.999000	2	
7	DEBUGGING	30-Jul-2015	10:48:37	9	3	106	NP	6	CMP300_6.bmp	Non-Target	R	1	16	H	9.999000	2	
7	DEBUGGING	30-Jul-2015	10:48:37	9	3	107	NP	6	CMP300_6.bmp	Non-Target	R	1	16	H	9.999000	2	
7	DEBUGGING	30-Jul-2015	10:48:37	9	3	108	NP	6	CMP300_6.bmp	Non-Target	R	1	16	H	9.999000	2	
7	DEBUGGING	30-Jul-2015	10:48:37	9	3	109	NP	7	CMP300_7.bmp	Non-Target	I	2	40	H	9.999000	2	
7	DEBUGGING	30-Jul-2015	10:48:37	9	3	110	NP	2	CMP300_2.bmp	Non-Target	RI	21	48	H	9.999000	2	
7	DEBUGGING	30-Jul-2015	10:48:37	9	3	111	NP	9	CMP300_9.bmp	Target	T	0	8	H	9.999000	2	
7	DEBUGGING	30-Jul-2015	10:48:37	9	3	112	NP	9	CMP300_9.bmp	Target	T	0	8	H	9.999000	2	
7	DEBUGGING	30-Jul-2015	10:48:37	9	3	113	NP	9	CMP300_9.bmp	Target	T	0	8	H	9.999000	2	
7	DEBUGGING	30-Jul-2015	10:48:37	9	3	114	NP	6	CMP300_6.bmp	Non-Target	R	1	16	H	9.999000	2	
7	DEBUGGING	30-Jul-2015	10:48:38	9	3	115	NP	6	CMP300_6.bmp	Non-Target	R	1	16	H	9.999000	2	
7	DEBUGGING	30-Jul-2015	10:48:38	9	3	116	NP	7	CMP300_7.bmp	Non-Target	I	2	40	H	9.999000	2	
7	DEBUGGING	30-Jul-2015	10:48:38	9	3	117	NP	6	CMP300_6.bmp	Non-Target	R	1	16	H	9.999000	2	
7	DEBUGGING	30-Jul-2015	10:48:38	9	3	118	NP	4	CMP300_4.bmp	Non-Target	IR	21	56	H	9.999000	2	
7	DEBUGGING	30-Jul-2015	10:48:38	9	3	119	NP	3	CMP300_3.bmp	Non-Target	R	2	24	H	9.999000	2	
7	DEBUGGING	30-Jul-2015	10:48:38	9	3	120	NP	9	CMP300_9.bmp	Target	T	0	8	H	9.999000	2	
7	DEBUGGING	30-Jul-2015	10:48:38	9	3	121	NP	9	CMP300_9.bmp	Target	T	0	8	H	9.999000	2	
7	DEBUGGING	30-Jul-2015	10:48:38	9	3	122	NP	9	CMP300_9.bmp	Target	T	0	8	H	9.999000	2	
7	DEBUGGING	30-Jul-2015	10:48:38	9	3	123	NP	7	CMP300_7.bmp	Non-Target	I	2	40	H	9.999000	2	
7	DEBUGGING	30-Jul-2015	10:48:38	9	3	124	NP	7	CMP300_7.bmp	Non-Target	I	2	40	H	9.999000	2	
7	DEBUGGING	30-Jul-2015	10:48:38	9	3	125	NP	1	CMP300_1.bmp	Non-Target	RRII	22	64	H	9.999000	2	
7	DEBUGGING	30-Jul-2015	10:48:38	9	3	126	NP	2	CMP300_2.bmp	Non-Target	RI	21	48	H	9.999000	2	
7	DEBUGGING	30-Jul-2015	10:48:38	9	3	127	NP	9	CMP300_9.bmp	Target	T	0	8	H	9.999000	2	
7	DEBUGGING	30-Jul-2015	10:48:38	9	3	128	NP	8	CMP300_8.bmp	Non-Target	I	1	32	H	9.999000	2	
7	DEBUGGING	30-Jul-2015	10:48:38	9	3	129	NP	6	CMP300_6.bmp	Non-Target	R	1	16	H	9.999000	2	
7	DEBUGGING	30-Jul-2015	10:48:38	9	3	130	NP	8	CMP300_8.bmp	Non-Target	I	1	32	H	9.999000	2	
7	DEBUGGING	30-Jul-2015	10:48:38	9	3	131	NP	8	CMP300_8.bmp	Non-Target	I	1	32	H	9.999000	2	
7	DEBUGGING	30-Jul-2015	10:48:38	9	3	132	NP	7	CMP300_7.bmp	Non-Target	I	2	40	H	9.999000	2	
7	DEBUGGING	30-Jul-2015	10:48:38	9	3	133	NP	7	CMP300_7.bmp	Non-Target	I	2	40	H	9.999000	2	
7	DEBUGGING	30-Jul-2015	10:48:38	9	3	134	NP	9	CMP300_9.bmp	Target	T	0	8	H	9.999000	2	
7	DEBUGGING	30-Jul-2015	10:48:39	9	3	135	NP	6	CMP300_6.bmp	Non-Target	R	1	16	H	9.999000	2	
7	DEBUGGING	30-Jul-2015	10:48:39	9	3	136	NP	3	CMP300_3.bmp	Non-Target	R	2	24	H	9.999000	2	
7	DEBUGGING	30-Jul-2015	10:48:39	9	3	137	NP	4	CMP300_4.bmp	Non-Target	IR	21	56	H	9.999000	2	
7	DEBUGGING	30-Jul-2015	10:48:39	9	3	138	NP	6	CMP300_6.bmp	Non-Target	R	1	16	H	9.999000	2	
7	DEBUGGING	30-Jul-2015	10:48:39	9	3	139	NP	2	CMP300_2.bmp	Non-Target	RI	21	48	H	9.999000	2	
7	DEBUGGING	30-Jul-2015	10:48:39	9	3	140	NP	3	CMP300_3.bmp	Non-Target	R	2	24	H	9.999000	2	
7	DEBUGGING	30-Jul-2015	10:48:39	9	3	141	NP	8	CMP300_8.bmp	Non-Target	I	1	32	H	9.999000	2	
7	DEBUGGING	30-Jul-2015	10:48:39	9	3	142	NP	8	CMP300_8.bmp	Non-Target	I	1	32	H	9.999000	2	
7	DEBUGGING	30-Jul-2015	10:48:39	9	3	143	NP	8	CMP300_8.bmp	Non-Target	I	1	32	H	9.999000	2	
7	DEBUGGING	30-Jul-2015	10:48:39	9	3	144	NP	9	CMP300_9.bmp	Target	T	0	8	H	9.999000	2	
7	DEBUGGING	30-Jul-2015	10:48:39	9	3	145	NP	9	CMP300_9.bmp	Target	T	0	8	H	9.999000	2	
7	DEBUGGING	30-Jul-2015	10:48:39	9	3	146	NP	6	CMP300_6.bmp	Non-Target	R	1	16	H	9.999000	2	
7	DEBUGGING	30-Jul-2015	10:48:39	9	3	147	NP	8	CMP300_8.bmp	Non-Target	I	1	32	H	9.999000	2	
7	DEBUGGING	30-Jul-2015	10:48:39	9	3	148	NP	3	CMP300_3.bmp	Non-Target	R	2	24	H	9.999000	2	
7	DEBUGGING	30-Jul-2015	10:48:39	9	3	149	NP	1	CMP300_1.bmp	Non-Target	RRII	22	64	H	9.999000	2	
7	DEBUGGING	30-Jul-2015	10:48:39	9	3	150	NP	3	CMP300_3.bmp	Non-Target	R	2	24	H	9.999000	2	
7	DEBUGGING	30-Jul-2015	10:48:39	9	3	151	NP	3	CMP300_3.bmp	Non-Target	R	2	24	H	9.999000	2	
7	DEBUGGING	30-Jul-2015	10:48:39	9	3	152	NP	9	CMP300_9.bmp	Target	T	0	8	H	9.999000	2	
7	DEBUGGING	30-Jul-2015	10:48:39	9	3	153	NP	8	CMP300_8.bmp	Non-Target	I	1	32	H	9.999000	2	
7	DEBUGGING	30-Jul-2015	10:48:39	9	3	154	NP	2	CMP300_2.bmp	Non-Target	RI	21	48	H	9.999000	2	
7	DEBUGGING	30-Jul-2015	10:48:40	9	3	155	NP	9	CMP300_9.bmp	Target	T	0	8	H	9.999000	2	
7	DEBUGGING	30-Jul-2015	10:48:40	9	3	156	NP	4	CMP300_4.bmp	Non-Target	IR	21	56	H	9.999000	2	
7	DEBUGGING	30-Jul-2015	10:48:40	9	3	157	NP	4	CMP300_4.bmp	Non-Target	IR	21	56	H	9.999000	2	
7	DEBUGGING	30-Jul-2015	10:48:40	9	3	158	NP	4	CMP300_4.bmp	Non-Target	IR	21	56	H	9.999000	2	
7	DEBUGGING	30-Jul-2015	10:48:40	9	3	159	NP	1	CMP300_1.bmp	Non-Target	RRII	22	64	H	9.999000	2	
7	DEBUGGING	30-Jul-2015	10:48:40	9	3	160	NP	7	CMP300_7.bmp	Non-Target	I	2	40	H	9.999000	2	
7	DEBUGGING	30-Jul-2015	10:48:40	9	3	161	NP	6	CMP300_6.bmp	Non-Target	R	1	16	H	9.999000	2	
7	DEBUGGING	30-Jul-2015	10:48:40	9	3	162	NP	6	CMP300_6.bmp	Non-Target	R	1	16	H	9.999000	2	
7	DEBUGGING	30-Jul-2015	10:48:40	9	3	163	NP	7	CMP300_7.bmp	Non-Target	I	2	40	H	9.999000	2	
7	DEBUGGING	30-Jul-2015	10:48:40	9	3	164	NP	8	CMP300_8.bmp	Non-Target	I	1	32	H	9.999000	2	
7	DEBUGGING	30-Jul-2015	10:48:40	9	3	165	NP	1	CMP300_1.bmp	Non-Target	RRII	22	64	H	9.999000	2	
7	DEBUGGING	30-Jul-2015	10:48:40	9	3	166	NP	3	CMP300_3.bmp	Non-Target	R	2	24	H	9.999000	2	
7	DEBUGGING	30-Jul-2015	10:48:40	9	3	167	NP	6	CMP300_6.bmp	Non-Target	R	1	16	H	9.999000	2	
7	DEBUGGING	30-Jul-2015	10:48:40	9	3	168	NP	6	CMP300_6.bmp	Non-Target	R	1	16	H	9.999000	2	
7	DEBUGGING	30-Jul-2015	10:48:40	9	3	169	NP	2	CMP300_2.bmp	Non-Target	RI	21	48	H	9.999000	2	
7	DEBUGGING	30-Jul-2015	10:48:40	9	3	170	NP	4	CMP300_4.bmp	Non-Target	IR	21	56	H	9.999000	2	
7	DEBUGGING	30-Jul-2015	10:48:40	9	3	171	NP	4	CMP300_4.bmp	Non-Target	IR	21	56	H	9.999000	2	
7	DEBUGGING	30-Jul-2015	10:48:40	9	3	172	NP	7	CMP300_7.bmp	Non-Target	I	2	40	H	9.999000	2	
7	DEBUGGING	30-Jul-2015	10:48:40	9	3	173	NP	2	CMP300_2.bmp	Non-Target	RI	21	48	H	9.999000	2	
7	DEBUGGING	30-Jul-2015	10:48:40	9	3	174	NP	9	CMP300_9.bmp	Target	T	0	8	H	9.999000	2	
7	DEBUGGING	30-Jul-2015	10:48:41	9	3	175	NP	1	CMP300_1.bmp	Non-Target	RRII	22	64	H	9.999000	2	
7	DEBUGGING	30-Jul-2015	10:48:41	9	3	176	NP	1	CMP300_1.bmp	Non-Target	RRII	22	64	H	9.999000	2	
7	DEBUGGING	30-Jul-2015	10:48:41	9	3	177	NP	3	CMP300_3.bmp	Non-Target	R	2	24	H	9.999000	2	
7	DEBUGGING	30-Jul-2015	10:48:41	9	3	178	NP	8	CMP300_8.bmp	Non-Target	I	1	32	H	9.999000	2	
7	DEBUGGING	30-Jul-2015	10:48:41	9	3	179	NP	7	CMP300_7.bmp	Non-Target	I	2	40	H	9.999000	2	
7	DEBUGGING	30-Jul-2015	10:48:41	9	3	180	NP	7	CMP300_7.bmp	Non-Target	I	2	40	H	9.999000	2	
7	DEBUGGING	30-Jul-2015	10:48:41	9	3	181	NP	2	CMP300_2.bmp	Non-Target	RI	21	48	H	9.999000	2	
7	DEBUGGING	30-Jul-2015	10:48:41	9	3	182	NP	6	CMP300_6.bmp	Non-Target	R	1	16	H	9.999000	2	
7	DEBUGGING	30-Jul-2015	10:48:41	9	3	183	NP	3	CMP300_3.bmp	Non-Target	R	2	24	H	9.999000	2	
7	DEBUGGING	30-Jul-2015	10:48:41	9	3	184	NP	8	CMP300_8.bmp	Non-Target	I	1	32	H	9.999000	2	
7	DEBUGGING	30-Jul-2015	10:48:41	9	3	185	NP	1	CMP300_1.bmp	Non-Target	RRII	22	64	H	9.999000	2	
7	DEBUGGING	30-Jul-2015	10:48:41	9	3	186	NP	8	CMP300_8.bmp	Non-Target	I	1	32	H	9.999000	2	
7	DEBUGGING	30-Jul-2015	10:48:41	9	3	187	NP	4	CMP300_4.bmp	Non-Target	IR	21	56	H	9.999000	2	
7	DEBUGGING	30-Jul-2015	10:48:41	9	3	188	NP	2	CMP300_2.bmp	Non-Target	RI	21	48	H	9.999000	2	
7	DEBUGGING	30-Jul-2015	10:48:41	9	3	189	NP	2	CMP300_2.bmp	Non-Target	RI	21	48	H	9.999000	2	
7	DEBUGGING	30-Jul-2015	10:48:41	9	3	190	NP	4	CMP300_4.bmp	Non-Target	IR	21	56	H	9.999000	2	
7	DEBUGGING	30-Jul-2015	10:48:41	9	3	191	NP	4	CMP300_4.bmp	Non-Target	IR	21	56	H	9.999000	2	
7	DEBUGGING	30-Jul-2015	10:48:41	9	3	192	NP	7	CMP300_7.bmp	Non-Target	I	2	40	H	9.999000	2	
7	DEBUGGING	30-Jul-2015	10:48:41	9	3	193	NP	1	CMP300_1.bmp	Non-Target	RRII	22	64	H	9.999000	2	
7	DEBUGGING	30-Jul-2015	10:48:41	9	3	194	NP	8	CMP300_8.bmp	Non-Target	I	1	32	H	9.999000	2	
7	DEBUGGING	30-Jul-2015	10:48:42	9	3	195	NP	3	CMP300_3.bmp	Non-Target	R	2	24	H	9.999000	2	
7	DEBUGGING	30-Jul-2015	10:48:42	9	3	196	NP	4	CMP300_4.bmp	Non-Target	IR	21	56	H	9.999000	2	
7	DEBUGGING	30-Jul-2015	10:48:42	9	3	197	NP	8	CMP300_8.bmp	Non-Target	I	1	32	H	9.999000	2	
7	DEBUGGING	30-Jul-2015	10:48:42	9	3	198	NP	1	CMP300_1.bmp	Non-Target	RRII	22	64	H	9.999000	2	
7	DEBUGGING	30-Jul-2015	10:48:42	9	3	199	NP	3	CMP300_3.bmp	Non-Target	R	2	24	H	9.999000	2	
7	DEBUGGING	30-Jul-2015	10:48:42	9	3	200	NP	1	CMP300_1.bmp	Non-Target	RRII	22	64	H	9.999000	2	
7	DEBUGGING	30-Jul-2015	10:48:42	9	3	201	NP	9	CMP300_9.bmp	Target	T	0	8	H	9.999000	2	
7	DEBUGGING	30-Jul-2015	10:48:42	9	3	202	NP	2	CMP300_2.bmp	Non-Target	RI	21	48	H	9.999000	2	
7	DEBUGGING	30-Jul-2015	10:48:42	9	3	203	NP	4	CMP300_4.bmp	Non-Target	IR	21	56	H	9.999000	2	
7	DEBUGGING	30-Jul-2015	10:48:42	9	3	204	NP	1	CMP300_1.bmp	Non-Target	RRII	22	64	H	9.999000	2	
7	DEBUGGING	30-Jul-2015	10:48:42	9	3	205	NP	4	CMP300_4.bmp	Non-Target	IR	21	56	H	9.999000	2	
7	DEBUGGING	30-Jul-2015	10:48:42	9	3	206	NP	7	CMP300_7.bmp	Non-Target	I	2	40	H	9.999000	2	
7	DEBUGGING	30-Jul-2015	10:48:42	9	3	207	NP	9	CMP300_9.bmp	Target	T	0	8	H	9.999000	2	
7	DEBUGGING	30-Jul-2015	10:48:42	9	3	208	NP	8	CMP300_8.bmp	Non-Target	I	1	32	H	9.999000	2	
7	DEBUGGING	30-Jul-2015	10:48:42	9	3	209	NP	3	CMP300_3.bmp	Non-Target	R	2	24	H	9.999000	2	
7	DEBUGGING	30-Jul-2015	10:48:42	9	3	210	NP	7	CMP300_7.bmp	Non-Target	I	2	40	H	9.999000	2	
7	DEBUGGING	30-Jul-2015	10:48:42	9	3	211	NP	7	CMP300_7.bmp	Non-Target	I	2	40	H	9.999000	2	
7	DEBUGGING	30-Jul-2015	10:48:42	9	3	212	NP	7	CMP300_7.bmp	Non-Target	I	2	40	H	9.999000	2	
7	DEBUGGING	30-Jul-2015	10:48:42	9	3	213	NP	9	CMP300_9.bmp	Target	T	0	8	H	9.999000	2	
7	DEBUGGING	30-Jul-2015	10:48:42	9	3	214	NP	9	CMP300_9.bmp	Target	T	0	8	H	9.999000	2	
7	DEBUGGING	30-Jul-2015	10:48:43	9	3	215	NP	1	CMP300_1.bmp	Non-Target	RRII	22	64	H	9.999000	2	
7	DEBUGGING	30-Jul-2015	10:48:43	9	3	216	NP	2	CMP300_2.bmp	Non-Target	RI	21	48	H	9.999000	2	
7	DEBUGGING	30-Jul-2015	10:48:43	9	3	217	NP	8	CMP300_8.bmp	Non-Target	I	1	32	H	9.999000	2	
7	DEBUGGING	30-Jul-2015	10:48:43	9	3	218	NP	6	CMP300_6.bmp	Non-Target	R	1	16	H	9.999000	2	
7	DEBUGGING	30-Jul-2015	10:48:43	9	3	219	NP	6	CMP300_6.bmp	Non-Target	R	1	16	H	9.999000	2	
7	DEBUGGING	30-Jul-2015	10:48:43	9	3	220	NP	7	CMP300_7.bmp	Non-Target	I	2	40	H	9.999000	2	
7	DEBUGGING	30-Jul-2015	10:48:43	9	3	221	NP	2	CMP300_2.bmp	Non-Target	RI	21	48	H	9.999000	2	
7	DEBUGGING	30-Jul-2015	10:48:43	9	3	222	NP	2	CMP300_2.bmp	Non-Target	RI	21	48	H	9.999000	2	
7	DEBUGGING	30-Jul-2015	10:48:43	9	3	223	NP	8	CMP300_8.bmp	Non-Target	I	1	32	H	9.999000	2	
7	DEBUGGING	30-Jul-2015	10:48:43	9	3	224	NP	7	CMP300_7.bmp	Non-Target	I	2	40	H	9.999000	2	
7	DEBUGGING	30-Jul-2015	10:48:43	9	3	225	NP	8	CMP300_8.bmp	Non-Target	I	1	32	H	9.999000	2	
7	DEBUGGING	30-Jul-2015	10:48:43	9	3	226	NP	1	CMP300_1.bmp	Non-Target	RRII	22	64	H	9.999000	2	
7	DEBUGGING	30-Jul-2015	10:48:43	9	3	227	NP	8	CMP300_8.bmp	Non-Target	I	1	32	H	9.999000	2	
7	DEBUGGING	30-Jul-2015	10:48:43	9	3	228	NP	4	CMP300_4.bmp	Non-Target	IR	21	56	H	9.999000	2	
7	DEBUGGING	30-Jul-2015	10:48:43	9	3	229	NP	2	CMP300_2.bmp	Non-Target	RI	21	48	H	9.999000	2	
7	DEBUGGING	30-Jul-2015	10:48:43	9	3	230	NP	1	CMP300_1.bmp	Non-Target	RRII	22	64	H	9.999000	2	
7	DEBUGGING	30-Jul-2015	10:48:43	9	3	231	NP	1	CMP300_1.bmp	Non-Target	RRII	22	64	H	9.999000	2	
7	DEBUGGING	30-Jul-2015	10:48:43	9	3	232	NP	3	CMP300_3.bmp	Non-Target	R	2	24	H	9.999000	2	
7	DEBUGGING	30-Jul-2015	10:48:43	9	3	233	NP	6	CMP300_6.bmp	Non-Target	R	1	16	H	9.999000	2	
7	DEBUGGING	30-Jul-2015	10:48:43	9	3	234	NP	4	CMP300_4.bmp	Non-Target	IR	21	56	H	9.999000	2	
7	DEBUGGING	30-Jul-2015	10:48:44	9	3	235	NP	2	CMP300_2.bmp	Non-Target	RI	21	48	H	9.999000	2	
7	DEBUGGING	30-Jul-2015	10:48:44	9	3	236	NP	2	CMP300_2.bmp	Non-Target	RI	21	48	H	9.999000	2	
7	DEBUGGING	30-Jul-2015	10:48:44	9	3	237	NP	3	CMP300_3.bmp	Non-Target	R	2	24	H	9.999000	2	
7	DEBUGGING	30-Jul-2015	10:48:44	9	3	238	NP	4	CMP300_4.bmp	Non-Target	IR	21	56	H	9.999000	2	
7	DEBUGGING	30-Jul-2015	10:48:44	9	3	239	NP	1	CMP300_1.bmp	Non-Target	RRII	22	64	H	9.999000	2	
7	DEBUGGING	30-Jul-2015	10:48:44	9	3	240	NP	3	CMP300_3.bmp	Non-Target	R	2	24	H	9.999000	2	
7	DEBUGGING	30-Jul-2015	10:48:44	9	3	241	NP	4	CMP300_4.bmp	Non-Target	IR	21	56	H	9.999000	2	
7	DEBUGGING	30-Jul-2015	10:48:44	9	3	242	NP	2	CMP300_2.bmp	Non-Target	RI	21	48	H	9.999000	2	
7	DEBUGGING	30-Jul-2015	10:48:44	9	3	243	NP	6	CMP300_6.bmp	Non-Target	R	1	16	H	9.999000	2	
7	DEBUGGING	30-Jul-2015	10:48:44	9	3	244	NP	2	CMP300_2.bmp	Non-Target	RI	21	48	H	9.999000	2	
7	DEBUGGING	30-Jul-2015	10:48:44	9	3	245	NP	9	CMP300_9.bmp	Target	T	0	8	H	9.999000	2	
7	DEBUGGING	30-Jul-2015	10:48:44	9	3	246	NP	1	CMP300_1.bmp	Non-Target	RRII	22	64	H	9.999000	2	
7	DEBUGGING	30-Jul-2015	10:48:44	9	3	247	NP	1	CMP300_1.bmp	Non-Target	RRII	22	64	H	9.999000	2	
7	DEBUGGING	30-Jul-2015	10:48:44	9	3	248	NP	3	CMP300_3.bmp	Non-Target	R	2	24	H	9.999000	2	
7	DEBUGGING	30-Jul-2015	10:48:44	9	3	249	NP	2	CMP300_2.bmp	Non-Target	RI	21	48	H	9.999000	2	
7	DEBUGGING	30-Jul-2015	10:48:44	9	3	250	NP	2	CMP300_2.bmp	Non-Target	RI	21	48	H	9.999000	2	
7	DEBUGGING	30-Jul-2015	10:48:44	9	3	251	NP	2	CMP300_2.bmp	Non-Target	RI	21	48	H	9.999000	2	
7	DEBUGGING	30-Jul-2015	10:48:44	9	3	252	NP	7	CMP300_7.bmp	Non-Target	I	2	40	H	9.999000	2	
7	DEBUGGING	30-Jul-2015	10:48:44	9	3	253	NP	4	CMP300_4.bmp	Non-Target	IR	21	56	H	9.999000	2	
7	DEBUGGING	30-Jul-2015	10:48:44	9	3	254	NP	6	CMP300_6.bmp	Non-Target	R	1	16	H	9.999000	2	
7	DEBUGGING	30-Jul-2015	10:48:45	9	3	255	NP	9	CMP300_9.bmp	Target	T	0	8	H	9.999000	2	
7	DEBUGGING	30-Jul-2015	10:48:45	9	3	256	NP	7	CMP300_7.bmp	Non-Target	I	2	40	H	9.999000	2	
7	DEBUGGING	30-Jul-2015	10:48:45	9	3	257	NP	8	CMP300_8.bmp	Non-Target	I	1	32	H	9.999000	2	
7	DEBUGGING	30-Jul-2015	10:48:45	9	3	258	NP	4	CMP300_4.bmp	Non-Target	IR	21	56	H	9.999000	2	
7	DEBUGGING	30-Jul-2015	10:48:45	9	3	259	NP	2	CMP300_2.bmp	Non-Target	RI	21	48	H	9.999000	2	
7	DEBUGGING	30-Jul-2015	10:48:45	9	3	260	NP	6	CMP300_6.bmp	Non-Target	R	1	16	H	9.999000	2	
7	DEBUGGING	30-Jul-2015	10:48:45	9	3	261	NP	3	CMP300_3.bmp	Non-Target	R	2	24	H	9.999000	2	
7	DEBUGGING	30-Jul-2015	10:48:45	9	3	262	NP	9	CMP300_9.bmp	Target	T	0	8	H	9.999000	2	
7	DEBUGGING	30-Jul-2015	10:48:45	9	3	263	NP	7	CMP300_7.bmp	Non-Target	I	2	40	H	9.999000	2	
7	DEBUGGING	30-Jul-2015	10:48:45	9	3	264	NP	1	CMP300_1.bmp	Non-Target	RRII	22	64	H	9.999000	2	
7	DEBUGGING	30-Jul-2015	10:48:45	9	3	265	NP	9	CMP300_9.bmp	Target	T	0	8	H	9.999000	2	
7	DEBUGGING	30-Jul-2015	10:48:45	9	3	266	NP	3	CMP300_3.bmp	Non-Target	R	2	24	H	9.999000	2	
7	DEBUGGING	30-Jul-2015	10:48:45	9	3	267	NP	2	CMP300_2.bmp	Non-Target	RI	21	48	H	9.999000	2	
7	DEBUGGING	30-Jul-2015	10:48:45	9	3	268	NP	9	CMP300_9.bmp	Target	T	0	8	H	9.999000	2	
7	DEBUGGING	30-Jul-2015	10:48:45	9	3	269	NP	6	CMP300_6.bmp	Non-Target	R	1	16	H	9.999000	2	
7	DEBUGGING	30-Jul-2015	10:48:45	9	3	270	NP	1	CMP300_1.bmp	Non-Target	RRII	22	64	H	9.999000	2	
7	DEBUGGING	30-Jul-2015	10:48:45	9	3	271	NP	2	CMP300_2.bmp	Non-Target	RI	21	48	H	9.999000	2	
7	DEBUGGING	30-Jul-2015	10:48:45	9	3	272	NP	7	CMP300_7.bmp	Non-Target	I	2	40	H	9.999000	2	
7	DEBUGGING	30-Jul-2015	10:48:45	9	3	273	NP	3	CMP300_3.bmp	Non-Target	R	2	24	H	9.999000	2	
7	DEBUGGING	30-Jul-2015	10:48:45	9	3	274	NP	4	CMP300_4.bmp	Non-Target	IR	21	56	H	9.999000	2	
7	DEBUGGING	30-Jul-2015	10:48:46	9	3	275	NP	6	CMP300_6.bmp	Non-Target	R	1	16	H	9.999000	2	
7	DEBUGGING	30-Jul-2015	10:48:46	9	3	276	NP	8	CMP300_8.bmp	Non-Target	I	1	32	H	9.999000	2	
7	DEBUGGING	30-Jul-2015	10:48:46	9	3	277	NP	1	CMP300_1.bmp	Non-Target	RRII	22	64	H	9.999000	2	
7	DEBUGGING	30-Jul-2015	10:48:46	9	3	278	NP	6	CMP300_6.bmp	Non-Target	R	1	16	H	9.999000	2	
7	DEBUGGING	30-Jul-2015	10:48:46	9	3	279	NP	7	CMP300_7.bmp	Non-Target	I	2	40	H	9.999000	2	
7	DEBUGGING	30-Jul-2015	10:48:46	9	3	280	NP	9	CMP300_9.bmp	Target	T	0	8	H	9.999000	2	
7	DEBUGGING	30-Jul-2015	10:48:46	9	3	281	NP	1	CMP300_1.bmp	Non-Target	RRII	22	64	H	9.999000	2	
7	DEBUGGING	30-Jul-2015	10:48:46	9	3	282	NP	7	CMP300_7.bmp	Non-Target	I	2	40	H	9.999000	2	
7	DEBUGGING	30-Jul-2015	10:48:46	9	3	283	NP	8	CMP300_8.bmp	Non-Target	I	1	32	H	9.999000	2	
7	DEBUGGING	30-Jul-2015	10:48:46	9	3	284	NP	1	CMP300_1.bmp	Non-Target	RRII	22	64	H	9.999000	2	
7	DEBUGGING	30-Jul-2015	10:48:46	9	3	285	NP	8	CMP300_8.bmp	Non-Target	I	1	32	H	9.999000	2	
7	DEBUGGING	30-Jul-2015	10:48:46	9	3	286	NP	9	CMP300_9.bmp	Target	T	0	8	H	9.999000	2	
7	DEBUGGING	30-Jul-2015	10:48:46	9	3	287	NP	9	CMP300_9.bmp	Target	T	0	8	H	9.999000	2	
7	DEBUGGING	30-Jul-2015	10:48:46	9	3	288	NP	3	CMP300_3.bmp	Non-Target	R	2	24	H	9.999000	2	
7	DEBUGGING	30-Jul-2015	10:48:46	9	3	289	NP	4	CMP300_4.bmp	Non-Target	IR	21	56	H	9.999000	2	
7	DEBUGGING	30-Jul-2015	10:48:46	9	3	290	NP	1	CMP300_1.bmp	Non-Target	RRII	22	64	H	9.999000	2	
7	DEBUGGING	30-Jul-2015	10:48:46	9	3	291	NP	9	CMP300_9.bmp	Target	T	0	8	H	9.999000	2	
7	DEBUGGING	30-Jul-2015	10:48:46	9	3	292	NP	8	CMP300_8.bmp	Non-Target	I	1	32	H	9.999000	2	
7	DEBUGGING	30-Jul-2015	10:48:46	9	3	293	NP	7	CMP300_7.bmp	Non-Target	I	2	40	H	9.999000	2	
7	DEBUGGING	30-Jul-2015	10:48:46	9	3	294	NP	1	CMP300_1.bmp	Non-Target	RRII	22	64	H	9.999000	2	
7	DEBUGGING	30-Jul-2015	10:48:47	9	3	295	NP	8	CMP300_8.bmp	Non-Target	I	1	32	H	9.999000	2	
7	DEBUGGING	30-Jul-2015	10:48:47	9	3	296	NP	2	CMP300_2.bmp	Non-Target	RI	21	48	H	9.999000	2	
7	DEBUGGING	30-Jul-2015	10:48:47	9	3	297	NP	8	CMP300_8.bmp	Non-Target	I	1	32	H	9.999000	2	
7	DEBUGGING	30-Jul-2015	10:48:47	9	4	1	NP	3	CMP300_3.bmp	Non-Target	R	2	24	H	9.999000	2	
7	DEBUGGING	30-Jul-2015	10:48:47	9	4	2	NP	3	CMP300_3.bmp	Non-Target	R	2	24	H	9.999000	2	
7	DEBUGGING	30-Jul-2015	10:48:47	9	4	3	NP	4	CMP300_4.bmp	Non-Target	IR	21	56	H	9.999000	2	
7	DEBUGGING	30-Jul-2015	10:48:47	9	4	4	NP	8	CMP300_8.bmp	Non-Target	I	1	32	H	9.999000	2	
7	DEBUGGING	30-Jul-2015	10:48:47	9	4	5	NP	6	CMP300_6.bmp	Non-Target	R	1	16	H	9.999000	2	
7	DEBUGGING	30-Jul-2015	10:48:47	9	4	6	NP	4	CMP300_4.bmp	Non-Target	IR	21	56	H	9.999000	2	
7	DEBUGGING	30-Jul-2015	10:48:47	9	4	7	NP	3	CMP300_3.bmp	Non-Target	R	2	24	H	9.999000	2	
7	DEBUGGING	30-Jul-2015	10:48:47	9	4	8	NP	4	CMP300_4.bmp	Non-Target	IR	21	56	H	9.999000	2	
7	DEBUGGING	30-Jul-2015	10:48:47	9	4	9	NP	2	CMP300_2.bmp	Non-Target	RI	21	48	H	9.999000	2	
7	DEBUGGING	30-Jul-2015	10:48:47	9	4	10	NP	3	CMP300_3.bmp	Non-Target	R	2	24	H	9.999000	2	
7	DEBUGGING	30-Jul-2015	10:48:47	9	4	11	NP	4	CMP300_4.bmp	Non-Target	IR	21	56	H	9.999000	2	
7	DEBUGGING	30-Jul-2015	10:48:47	9	4	12	NP	9	CMP300_9.bmp	Target	T	0	8	H	9.999000	2	
7	DEBUGGING	30-Jul-2015	10:48:47	9	4	13	NP	4	CMP300_4.bmp	Non-Target	IR	21	56	H	9.999000	2	
7	DEBUGGING	30-Jul-2015	10:48:47	9	4	14	NP	2	CMP300_2.bmp	Non-Target	RI	21	48	H	9.999000	2	
7	DEBUGGING	30-Jul-2015	10:48:47	9	4	15	NP	2	CMP300_2.bmp	Non-Target	RI	21	48	H	9.999000	2	
7	DEBUGGING	30-Jul-2015	10:48:48	9	4	16	NP	7	CMP300_7.bmp	Non-Target	I	2	40	H	9.999000	2	
7	DEBUGGING	30-Jul-2015	10:48:48	9	4	17	NP	4	CMP300_4.bmp	Non-Target	IR	21	56	H	9.999000	2	
7	DEBUGGING	30-Jul-2015	10:48:48	9	4	18	NP	3	CMP300_3.bmp	Non-Target	R	2	24	H	9.999000	2	
7	DEBUGGING	30-Jul-2015	10:48:48	9	4	19	NP	7	CMP300_7.bmp	Non-Target	I	2	40	H	9.999000	2	
7	DEBUGGING	30-Jul-2015	10:48:48	9	4	20	NP	8	CMP300_8.bmp	Non-Target	I	1	32	H	9.999000	2	
7	DEBUGGING	30-Jul-2015	10:48:48	9	4	21	NP	8	CMP300_8.bmp	Non-Target	I	1	32	H	9.999000	2	
7	DEBUGGING	30-Jul-2015	10:48:48	9	4	22	NP	9	CMP300_9.bmp	Target	T	0	8	H	9.999000	2	
7	DEBUGGING	30-Jul-2015	10:48:48	9	4	23	NP	2	CMP300_2.bmp	Non-Target	RI	21	48	H	9.999000	2	
7	DEBUGGING	30-Jul-2015	10:48:48	9	4	24	NP	3	CMP300_3.bmp	Non-Target	R	2	24	H	9.999000	2	
7	DEBUGGING	30-Jul-2015	10:48:48	9	4	25	NP	8	CMP300_8.bmp	Non-Target	I	1	32	H	9.999000	2	
7	DEBUGGING	30-Jul-2015	10:48:48	9	4	26	NP	9	CMP300_9.bmp	Target	T	0	8	H	9.999000	2	
7	DEBUGGING	30-Jul-2015	10:48:48	9	4	27	NP	2	CMP300_2.bmp	Non-Target	RI	21	48	H	9.999000	2	
7	DEBUGGING	30-Jul-2015	10:48:48	9	4	28	NP	8	CMP300_8.bmp	Non-Target	I	1	32	H	9.999000	2	
7	DEBUGGING	30-Jul-2015	10:48:48	9	4	29	NP	2	CMP300_2.bmp	Non-Target	RI	21	48	H	9.999000	2	
7	DEBUGGING	30-Jul-2015	10:48:48	9	4	30	NP	9	CMP300_9.bmp	Target	T	0	8	H	9.999000	2	
7	DEBUGGING	30-Jul-2015	10:48:48	9	4	31	NP	9	CMP300_9.bmp	Target	T	0	8	H	9.999000	2	
7	DEBUGGING	30-Jul-2015	10:48:48	9	4	32	NP	2	CMP300_2.bmp	Non-Target	RI	21	48	H	9.999000	2	
7	DEBUGGING	30-Jul-2015	10:48:48	9	4	33	NP	3	CMP300_3.bmp	Non-Target	R	2	24	H	9.999000	2	
7	DEBUGGING	30-Jul-2015	10:48:48	9	4	34	NP	8	CMP300_8.bmp	Non-Target	I	1	32	H	9.999000	2	
7	DEBUGGING	30-Jul-2015	10:48:48	9	4	35	NP	7	CMP300_7.bmp	Non-Target	I	2	40	H	9.999000	2	
7	DEBUGGING	30-Jul-2015	10:48:49	9	4	36	NP	6	CMP300_6.bmp	Non-Target	R	1	16	H	9.999000	2	
7	DEBUGGING	30-Jul-2015	10:48:49	9	4	37	NP	7	CMP300_7.bmp	Non-Target	I	2	40	H	9.999000	2	
7	DEBUGGING	30-Jul-2015	10:48:49	9	4	38	NP	9	CMP300_9.bmp	Target	T	0	8	H	9.999000	2	
7	DEBUGGING	30-Jul-2015	10:48:49	9	4	39	NP	3	CMP300_3.bmp	Non-Target	R	2	24	H	9.999000	2	
7	DEBUGGING	30-Jul-2015	10:48:49	9	4	40	NP	1	CMP300_1.bmp	Non-Target	RRII	22	64	H	9.999000	2	
7	DEBUGGING	30-Jul-2015	10:48:49	9	4	41	NP	4	CMP300_4.bmp	Non-Target	IR	21	56	H	9.999000	2	
7	DEBUGGING	30-Jul-2015	10:48:49	9	4	42	NP	6	CMP300_6.bmp	Non-Target	R	1	16	H	9.999000	2	
7	DEBUGGING	30-Jul-2015	10:48:49	9	4	43	NP	3	CMP300_3.bmp	Non-Target	R	2	24	H	9.999000	2	
7	DEBUGGING	30-Jul-2015	10:48:49	9	4	44	NP	7	CMP300_7.bmp	Non-Target	I	2	40	H	9.999000	2	
7	DEBUGGING	30-Jul-2015	10:48:49	9	4	45	NP	8	CMP300_8.bmp	Non-Target	I	1	32	H	9.999000	2	
7	DEBUGGING	30-Jul-2015	10:48:49	9	4	46	NP	1	CMP300_1.bmp	Non-Target	RRII	22	64	H	9.999000	2	
7	DEBUGGING	30-Jul-2015	10:48:49	9	4	47	NP	3	CMP300_3.bmp	Non-Target	R	2	24	H	9.999000	2	
7	DEBUGGING	30-Jul-2015	10:48:49	9	4	48	NP	1	CMP300_1.bmp	Non-Target	RRII	22	64	H	9.999000	2	
7	DEBUGGING	30-Jul-2015	10:48:49	9	4	49	NP	1	CMP300_1.bmp	Non-Target	RRII	22	64	H	9.999000	2	
7	DEBUGGING	30-Jul-2015	10:48:49	9	4	50	NP	1	CMP300_1.bmp	Non-Target	RRII	22	64	H	9.999000	2	
7	DEBUGGING	30-Jul-2015	10:48:49	9	4	51	NP	7	CMP300_7.bmp	Non-Target	I	2	40	H	9.999000	2	
7	DEBUGGING	30-Jul-2015	10:48:49	9	4	52	NP	6	CMP300_6.bmp	Non-Target	R	1	16	H	9.999000	2	
7	DEBUGGING	30-Jul-2015	10:48:49	9	4	53	NP	8	CMP300_8.bmp	Non-Target	I	1	32	H	9.999000	2	
7	DEBUGGING	30-Jul-2015	10:48:49	9	4	54	NP	6	CMP300_6.bmp	Non-Target	R	1	16	H	9.999000	2	
7	DEBUGGING	30-Jul-2015	10:48:49	9	4	55	NP	4	CMP300_4.bmp	Non-Target	IR	21	56	H	9.999000	2	
7	DEBUGGING	30-Jul-2015	10:48:50	9	4	56	NP	4	CMP300_4.bmp	Non-Target	IR	21	56	H	9.999000	2	
7	DEBUGGING	30-Jul-2015	10:48:50	9	4	57	NP	9	CMP300_9.bmp	Target	T	0	8	H	9.999000	2	
7	DEBUGGING	30-Jul-2015	10:48:50	9	4	58	NP	9	CMP300_9.bmp	Target	T	0	8	H	9.999000	2	
7	DEBUGGING	30-Jul-2015	10:48:50	9	4	59	NP	6	CMP300_6.bmp	Non-Target	R	1	16	H	9.999000	2	
7	DEBUGGING	30-Jul-2015	10:48:50	9	4	60	NP	3	CMP300_3.bmp	Non-Target	R	2	24	H	9.999000	2	
7	DEBUGGING	30-Jul-2015	10:48:50	9	4	61	NP	7	CMP300_7.bmp	Non-Target	I	2	40	H	9.999000	2	
7	DEBUGGING	30-Jul-2015	10:48:50	9	4	62	NP	6	CMP300_6.bmp	Non-Target	R	1	16	H	9.999000	2	
7	DEBUGGING	30-Jul-2015	10:48:50	9	4	63	NP	7	CMP300_7.bmp	Non-Target	I	2	40	H	9.999000	2	
7	DEBUGGING	30-Jul-2015	10:48:50	9	4	64	NP	4	CMP300_4.bmp	Non-Target	IR	21	56	H	9.999000	2	
7	DEBUGGING	30-Jul-2015	10:48:50	9	4	65	NP	2	CMP300_2.bmp	Non-Target	RI	21	48	H	9.999000	2	
7	DEBUGGING	30-Jul-2015	10:48:50	9	4	66	NP	7	CMP300_7.bmp	Non-Target	I	2	40	H	9.999000	2	
7	DEBUGGING	30-Jul-2015	10:48:50	9	4	67	NP	2	CMP300_2.bmp	Non-Target	RI	21	48	H	9.999000	2	
7	DEBUGGING	30-Jul-2015	10:48:50	9	4	68	NP	9	CMP300_9.bmp	Target	T	0	8	H	9.999000	2	
7	DEBUGGING	30-Jul-2015	10:48:50	9	4	69	NP	3	CMP300_3.bmp	Non-Target	R	2	24	H	9.999000	2	
7	DEBUGGING	30-Jul-2015	10:48:50	9	4	70	NP	9	CMP300_9.bmp	Target	T	0	8	H	9.999000	2	
7	DEBUGGING	30-Jul-2015	10:48:50	9	4	71	NP	4	CMP300_4.bmp	Non-Target	IR	21	56	H	9.999000	2	
7	DEBUGGING	30-Jul-2015	10:48:50	9	4	72	NP	1	CMP300_1.bmp	Non-Target	RRII	22	64	H	9.999000	2	
7	DEBUGGING	30-Jul-2015	10:48:50	9	4	73	NP	8	CMP300_8.bmp	Non-Target	I	1	32	H	9.999000	2	
7	DEBUGGING	30-Jul-2015	10:48:50	9	4	74	NP	6	CMP300_6.bmp	Non-Target	R	1	16	H	9.999000	2	
7	DEBUGGING	30-Jul-2015	10:48:50	9	4	75	NP	6	CMP300_6.bmp	Non-Target	R	1	16	H	9.999000	2	
7	DEBUGGING	30-Jul-2015	10:48:51	9	4	76	NP	6	CMP300_6.bmp	Non-Target	R	1	16	H	9.999000	2	
7	DEBUGGING	30-Jul-2015	10:48:51	9	4	77	NP	9	CMP300_9.bmp	Target	T	0	8	H	9.999000	2	
7	DEBUGGING	30-Jul-2015	10:48:51	9	4	78	NP	9	CMP300_9.bmp	Target	T	0	8	H	9.999000	2	
7	DEBUGGING	30-Jul-2015	10:48:51	9	4	79	NP	6	CMP300_6.bmp	Non-Target	R	1	16	H	9.999000	2	
7	DEBUGGING	30-Jul-2015	10:48:51	9	4	80	NP	7	CMP300_7.bmp	Non-Target	I	2	40	H	9.999000	2	
7	DEBUGGING	30-Jul-2015	10:48:51	9	4	81	NP	4	CMP300_4.bmp	Non-Target	IR	21	56	H	9.999000	2	
7	DEBUGGING	30-Jul-2015	10:48:51	9	4	82	NP	9	CMP300_9.bmp	Target	T	0	8	H	9.999000	2	
7	DEBUGGING	30-Jul-2015	10:48:51	9	4	83	NP	2	CMP300_2.bmp	Non-Target	RI	21	48	H	9.999000	2	
7	DEBUGGING	30-Jul-2015	10:48:51	9	4	84	NP	6	CMP300_6.bmp	Non-Target	R	1	16	H	9.999000	2	
7	DEBUGGING	30-Jul-2015	10:48:51	9	4	85	NP	6	CMP300_6.bmp	Non-Target	R	1	16	H	9.999000	2	
7	DEBUGGING	30-Jul-2015	10:48:51	9	4	86	NP	9	CMP300_9.bmp	Target	T	0	8	H	9.999000	2	
7	DEBUGGING	30-Jul-2015	10:48:51	9	4	87	NP	7	CMP300_7.bmp	Non-Target	I	2	40	H	9.999000	2	
7	DEBUGGING	30-Jul-2015	10:48:51	9	4	88	NP	1	CMP300_1.bmp	Non-Target	RRII	22	64	H	9.999000	2	
7	DEBUGGING	30-Jul-2015	10:48:51	9	4	89	NP	4	CMP300_4.bmp	Non-Target	IR	21	56	H	9.999000	2	
7	DEBUGGING	30-Jul-2015	10:48:51	9	4	90	NP	7	CMP300_7.bmp	Non-Target	I	2	40	H	9.999000	2	
7	DEBUGGING	30-Jul-2015	10:48:51	9	4	91	NP	3	CMP300_3.bmp	Non-Target	R	2	24	H	9.999000	2	
7	DEBUGGING	30-Jul-2015	10:48:51	9	4	92	NP	2	CMP300_2.bmp	Non-Target	RI	21	48	H	9.999000	2	
7	DEBUGGING	30-Jul-2015	10:48:51	9	4	93	NP	2	CMP300_2.bmp	Non-Target	RI	21	48	H	9.999000	2	
7	DEBUGGING	30-Jul-2015	10:48:51	9	4	94	NP	1	CMP300_1.bmp	Non-Target	RRII	22	64	H	9.999000	2	
7	DEBUGGING	30-Jul-2015	10:48:51	9	4	95	NP	6	CMP300_6.bmp	Non-Target	R	1	16	H	9.999000	2	
7	DEBUGGING	30-Jul-2015	10:48:52	9	4	96	NP	8	CMP300_8.bmp	Non-Target	I	1	32	H	9.999000	2	
7	DEBUGGING	30-Jul-2015	10:48:52	9	4	97	NP	2	CMP300_2.bmp	Non-Target	RI	21	48	H	9.999000	2	
7	DEBUGGING	30-Jul-2015	10:48:52	9	4	98	NP	8	CMP300_8.bmp	Non-Target	I	1	32	H	9.999000	2	
7	DEBUGGING	30-Jul-2015	10:48:52	9	4	99	NP	3	CMP300_3.bmp	Non-Target	R	2	24	H	9.999000	2	
7	DEBUGGING	30-Jul-2015	10:48:52	9	4	100	NP	4	CMP300_4.bmp	Non-Target	IR	21	56	H	9.999000	2	
7	DEBUGGING	30-Jul-2015	10:48:52	9	4	101	NP	2	CMP300_2.bmp	Non-Target	RI	21	48	H	9.999000	2	
7	DEBUGGING	30-Jul-2015	10:48:52	9	4	102	NP	4	CMP300_4.bmp	Non-Target	IR	21	56	H	9.999000	2	
7	DEBUGGING	30-Jul-2015	10:48:52	9	4	103	NP	7	CMP300_7.bmp	Non-Target	I	2	40	H	9.999000	2	
7	DEBUGGING	30-Jul-2015	10:48:52	9	4	104	NP	6	CMP300_6.bmp	Non-Target	R	1	16	H	9.999000	2	
7	DEBUGGING	30-Jul-2015	10:48:52	9	4	105	NP	9	CMP300_9.bmp	Target	T	0	8	H	9.999000	2	
7	DEBUGGING	30-Jul-2015	10:48:52	9	4	106	NP	1	CMP300_1.bmp	Non-Target	RRII	22	64	H	9.999000	2	
7	DEBUGGING	30-Jul-2015	10:48:52	9	4	107	NP	9	CMP300_9.bmp	Target	T	0	8	H	9.999000	2	
7	DEBUGGING	30-Jul-2015	10:48:52	9	4	108	NP	2	CMP300_2.bmp	Non-Target	RI	21	48	H	9.999000	2	
7	DEBUGGING	30-Jul-2015	10:48:52	9	4	109	NP	6	CMP300_6.bmp	Non-Target	R	1	16	H	9.999000	2	
7	DEBUGGING	30-Jul-2015	10:48:52	9	4	110	NP	1	CMP300_1.bmp	Non-Target	RRII	22	64	H	9.999000	2	
7	DEBUGGING	30-Jul-2015	10:48:52	9	4	111	NP	8	CMP300_8.bmp	Non-Target	I	1	32	H	9.999000	2	
7	DEBUGGING	30-Jul-2015	10:48:52	9	4	112	NP	6	CMP300_6.bmp	Non-Target	R	1	16	H	9.999000	2	
7	DEBUGGING	30-Jul-2015	10:48:52	9	4	113	NP	1	CMP300_1.bmp	Non-Target	RRII	22	64	H	9.999000	2	
7	DEBUGGING	30-Jul-2015	10:48:52	9	4	114	NP	6	CMP300_6.bmp	Non-Target	R	1	16	H	9.999000	2	
7	DEBUGGING	30-Jul-2015	10:48:52	9	4	115	NP	4	CMP300_4.bmp	Non-Target	IR	21	56	H	9.999000	2	
7	DEBUGGING	30-Jul-2015	10:48:53	9	4	116	NP	3	CMP300_3.bmp	Non-Target	R	2	24	H	9.999000	2	
7	DEBUGGING	30-Jul-2015	10:48:53	9	4	117	NP	6	CMP300_6.bmp	Non-Target	R	1	16	H	9.999000	2	
7	DEBUGGING	30-Jul-2015	10:48:53	9	4	118	NP	1	CMP300_1.bmp	Non-Target	RRII	22	64	H	9.999000	2	
7	DEBUGGING	30-Jul-2015	10:48:53	9	4	119	NP	4	CMP300_4.bmp	Non-Target	IR	21	56	H	9.999000	2	
7	DEBUGGING	30-Jul-2015	10:48:53	9	4	120	NP	7	CMP300_7.bmp	Non-Target	I	2	40	H	9.999000	2	
7	DEBUGGING	30-Jul-2015	10:48:53	9	4	121	NP	1	CMP300_1.bmp	Non-Target	RRII	22	64	H	9.999000	2	
7	DEBUGGING	30-Jul-2015	10:48:53	9	4	122	NP	9	CMP300_9.bmp	Target	T	0	8	H	9.999000	2	
7	DEBUGGING	30-Jul-2015	10:48:53	9	4	123	NP	2	CMP300_2.bmp	Non-Target	RI	21	48	H	9.999000	2	
7	DEBUGGING	30-Jul-2015	10:48:53	9	4	124	NP	4	CMP300_4.bmp	Non-Target	IR	21	56	H	9.999000	2	
7	DEBUGGING	30-Jul-2015	10:48:53	9	4	125	NP	9	CMP300_9.bmp	Target	T	0	8	H	9.999000	2	
7	DEBUGGING	30-Jul-2015	10:48:53	9	4	126	NP	8	CMP300_8.bmp	Non-Target	I	1	32	H	9.999000	2	
7	DEBUGGING	30-Jul-2015	10:48:53	9	4	127	NP	3	CMP300_3.bmp	Non-Target	R	2	24	H	9.999000	2	
7	DEBUGGING	30-Jul-2015	10:48:53	9	4	128	NP	7	CMP300_7.bmp	Non-Target	I	2	40	H	9.999000	2	
7	DEBUGGING	30-Jul-2015	10:48:53	9	4	129	NP	8	CMP300_8.bmp	Non-Target	I	1	32	H	9.999000	2	
7	DEBUGGING	30-Jul-2015	10:48:53	9	4	130	NP	2	CMP300_2.bmp	Non-Target	RI	21	48	H	9.999000	2	
7	DEBUGGING	30-Jul-2015	10:48:53	9	4	131	NP	1	CMP300_1.bmp	Non-Target	RRII	22	64	H	9.999000	2	
7	DEBUGGING	30-Jul-2015	10:48:53	9	4	132	NP	3	CMP300_3.bmp	Non-Target	R	2	24	H	9.999000	2	
7	DEBUGGING	30-Jul-2015	10:48:53	9	4	133	NP	8	CMP300_8.bmp	Non-Target	I	1	32	H	9.999000	2	
7	DEBUGGING	30-Jul-2015	10:48:53	9	4	134	NP	7	CMP300_7.bmp	Non-Target	I	2	40	H	9.999000	2	
7	DEBUGGING	30-Jul-2015	10:48:53	9	4	135	NP	4	CMP300_4.bmp	Non-Target	IR	21	56	H	9.999000	2	
7	DEBUGGING	30-Jul-2015	10:48:54	9	4	136	NP	9	CMP300_9.bmp	Target	T	0	8	H	9.999000	2	
7	DEBUGGING	30-Jul-2015	10:48:54	9	4	137	NP	9	CMP300_9.bmp	Target	T	0	8	H	9.999000	2	
7	DEBUGGING	30-Jul-2015	10:48:54	9	4	138	NP	4	CMP300_4.bmp	Non-Target	IR	21	56	H	9.999000	2	
7	DEBUGGING	30-Jul-2015	10:48:54	9	4	139	NP	1	CMP300_1.bmp	Non-Target	RRII	22	64	H	9.999000	2	
7	DEBUGGING	30-Jul-2015	10:48:54	9	4	140	NP	6	CMP300_6.bmp	Non-Target	R	1	16	H	9.999000	2	
7	DEBUGGING	30-Jul-2015	10:48:54	9	4	141	NP	2	CMP300_2.bmp	Non-Target	RI	21	48	H	9.999000	2	
7	DEBUGGING	30-Jul-2015	10:48:54	9	4	142	NP	8	CMP300_8.bmp	Non-Target	I	1	32	H	9.999000	2	
7	DEBUGGING	30-Jul-2015	10:48:54	9	4	143	NP	6	CMP300_6.bmp	Non-Target	R	1	16	H	9.999000	2	
7	DEBUGGING	30-Jul-2015	10:48:54	9	4	144	NP	4	CMP300_4.bmp	Non-Target	IR	21	56	H	9.999000	2	
7	DEBUGGING	30-Jul-2015	10:48:54	9	4	145	NP	7	CMP300_7.bmp	Non-Target	I	2	40	H	9.999000	2	
7	DEBUGGING	30-Jul-2015	10:48:54	9	4	146	NP	4	CMP300_4.bmp	Non-Target	IR	21	56	H	9.999000	2	
7	DEBUGGING	30-Jul-2015	10:48:54	9	4	147	NP	9	CMP300_9.bmp	Target	T	0	8	H	9.999000	2	
7	DEBUGGING	30-Jul-2015	10:48:54	9	4	148	NP	1	CMP300_1.bmp	Non-Target	RRII	22	64	H	9.999000	2	
7	DEBUGGING	30-Jul-2015	10:48:54	9	4	149	NP	9	CMP300_9.bmp	Target	T	0	8	H	9.999000	2	
7	DEBUGGING	30-Jul-2015	10:48:54	9	4	150	NP	6	CMP300_6.bmp	Non-Target	R	1	16	H	9.999000	2	
7	DEBUGGING	30-Jul-2015	10:48:54	9	4	151	NP	3	CMP300_3.bmp	Non-Target	R	2	24	H	9.999000	2	
7	DEBUGGING	30-Jul-2015	10:48:54	9	4	152	NP	8	CMP300_8.bmp	Non-Target	I	1	32	H	9.999000	2	
7	DEBUGGING	30-Jul-2015	10:48:54	9	4	153	NP	4	CMP300_4.bmp	Non-Target	IR	21	56	H	9.999000	2	
7	DEBUGGING	30-Jul-2015	10:48:54	9	4	154	NP	2	CMP300_2.bmp	Non-Target	RI	21	48	H	9.999000	2	
7	DEBUGGING	30-Jul-2015	10:48:55	9	4	155	NP	1	CMP300_1.bmp	Non-Target	RRII	22	64	H	9.999000	2	
7	DEBUGGING	30-Jul-2015	10:48:55	9	4	156	NP	2	CMP300_2.bmp	Non-Target	RI	21	48	H	9.999000	2	
7	DEBUGGING	30-Jul-2015	10:48:55	9	4	157	NP	2	CMP300_2.bmp	Non-Target	RI	21	48	H	9.999000	2	
7	DEBUGGING	30-Jul-2015	10:48:55	9	4	158	NP	4	CMP300_4.bmp	Non-Target	IR	21	56	H	9.999000	2	
7	DEBUGGING	30-Jul-2015	10:48:55	9	4	159	NP	3	CMP300_3.bmp	Non-Target	R	2	24	H	9.999000	2	
7	DEBUGGING	30-Jul-2015	10:48:55	9	4	160	NP	8	CMP300_8.bmp	Non-Target	I	1	32	H	9.999000	2	
7	DEBUGGING	30-Jul-2015	10:48:55	9	4	161	NP	2	CMP300_2.bmp	Non-Target	RI	21	48	H	9.999000	2	
7	DEBUGGING	30-Jul-2015	10:48:55	9	4	162	NP	4	CMP300_4.bmp	Non-Target	IR	21	56	H	9.999000	2	
7	DEBUGGING	30-Jul-2015	10:48:55	9	4	163	NP	3	CMP300_3.bmp	Non-Target	R	2	24	H	9.999000	2	
7	DEBUGGING	30-Jul-2015	10:48:55	9	4	164	NP	3	CMP300_3.bmp	Non-Target	R	2	24	H	9.999000	2	
7	DEBUGGING	30-Jul-2015	10:48:55	9	4	165	NP	8	CMP300_8.bmp	Non-Target	I	1	32	H	9.999000	2	
7	DEBUGGING	30-Jul-2015	10:48:55	9	4	166	NP	8	CMP300_8.bmp	Non-Target	I	1	32	H	9.999000	2	
7	DEBUGGING	30-Jul-2015	10:48:55	9	4	167	NP	1	CMP300_1.bmp	Non-Target	RRII	22	64	H	9.999000	2	
7	DEBUGGING	30-Jul-2015	10:48:55	9	4	168	NP	7	CMP300_7.bmp	Non-Target	I	2	40	H	9.999000	2	
7	DEBUGGING	30-Jul-2015	10:48:55	9	4	169	NP	4	CMP300_4.bmp	Non-Target	IR	21	56	H	9.999000	2	
7	DEBUGGING	30-Jul-2015	10:48:55	9	4	170	NP	7	CMP300_7.bmp	Non-Target	I	2	40	H	9.999000	2	
7	DEBUGGING	30-Jul-2015	10:48:55	9	4	171	NP	9	CMP300_9.bmp	Target	T	0	8	H	9.999000	2	
7	DEBUGGING	30-Jul-2015	10:48:55	9	4	172	NP	9	CMP300_9.bmp	Target	T	0	8	H	9.999000	2	
7	DEBUGGING	30-Jul-2015	10:48:55	9	4	173	NP	2	CMP300_2.bmp	Non-Target	RI	21	48	H	9.999000	2	
7	DEBUGGING	30-Jul-2015	10:48:55	9	4	174	NP	6	CMP300_6.bmp	Non-Target	R	1	16	H	9.999000	2	
7	DEBUGGING	30-Jul-2015	10:48:56	9	4	175	NP	8	CMP300_8.bmp	Non-Target	I	1	32	H	9.999000	2	
7	DEBUGGING	30-Jul-2015	10:48:56	9	4	176	NP	2	CMP300_2.bmp	Non-Target	RI	21	48	H	9.999000	2	
